File: FractureLab/Ti 0deg 2.csv
Time (s),Displacement (mm) ,Load (N),Width (mm),Base (mm),Final crack length (mm)
0,-0.00057,0.18876,25.0,9.5,7.22
0.1,-0.00064,0.17898
0.2,-0.00065,0.49292
0.3,-0.00052,5.89393
0.4,-0.00026,14.95009
0.5,-0.00002,29.54379
0.6,0.0002,51.39007
0.7,0.00041,61.27734
0.8,0.00058,69.26046
0.9,0.00072,80.16943
1,0.00091,98.02474
1.1,0.001,111.9673
1.2,0.00112,120.847
1.3,0.00124,128.595
1.4,0.00138,136.1714
1.5,0.00145,145.043
1.6,0.00161,157.51
1.7,0.00175,166.883
1.8,0.00191,177.594
1.9,0.00211,192.701
2,0.00218,203.045
2.1,0.00237,207.488
2.2,0.00253,210.846
2.3,0.00265,218.23
2.4,0.0029,228.828
2.5,0.00308,241.942
2.6,0.00325,248.7354
2.7,0.00349,263.049
2.8,0.00365,275.59
2.9,0.00391,282.41
3,0.00405,294.741
3.1,0.00432,312.322
3.2,0.0045,320.112
3.3,0.00476,333.798
3.4,0.00495,354.175
3.5,0.00517,366.732
3.6,0.00548,376.362
3.7,0.0057,388.241
3.8,0.00595,404.587
3.9,0.00628,418.395
4,0.00651,428.026
4.1,0.00676,439.3418
4.2,0.00701,462.793
4.3,0.00729,485.016
4.4,0.00754,499.511
4.5,0.00778,517.068
4.6,0.00806,533.229
4.7,0.00839,541.281
4.8,0.00859,560.949
4.9,0.00886,578.491
5,0.00919,589.181
5.1,0.00946,600.297
5.2,0.00978,610.646
5.3,0.01008,622.229
5.4,0.0104,633.0733
5.5,0.01067,644.854
5.6,0.011,669.988
5.7,0.01133,688.937
5.8,0.01166,703.543
5.9,0.01196,729.355
6,0.0123,749.488
6.1,0.01257,765.075
6.2,0.01295,793.46
6.3,0.01326,809.397
6.4,0.01358,817.6936
6.5,0.01393,823.023
6.6,0.01427,837.8
6.7,0.01464,851.265
6.8,0.01495,867.017
6.9,0.01534,889.845
7,0.0157,909.621
7.1,0.01608,929.843
7.2,0.01639,940.802
7.3,0.01678,959.781
7.4,0.01706,986.6
7.5,0.01746,996.791
7.6,0.01776,1013.93
7.7,0.01822,1035.36
7.8,0.01858,1046.69
7.9,0.01889,1058.12
8,0.01935,1077.62
8.1,0.0198,1102.46
8.2,0.02014,1110.19
8.3,0.02055,1133.99
8.4,0.02092,1157.63
8.5,0.02134,1182.45
8.6,0.02174,1206.49
8.7,0.02208,1219.44
8.8,0.02247,1231.26
8.9,0.02291,1242.53
9,0.02321,1255.93
9.1,0.02361,1270.19
9.2,0.02402,1302.44
9.3,0.02442,1324.79
9.4,0.0248,1347.51
9.5,0.02521,1363.52
9.6,0.02564,1385.74
9.7,0.02609,1409.26
9.8,0.02643,1421.21
9.9,0.02682,1434.63
10,0.02716,1448.59
10.1,0.02755,1469.21
10.2,0.02789,1484.91
10.3,0.02832,1510.15
10.4,0.02876,1524.99
10.5,0.02913,1552.83
10.6,0.02954,1568.36
10.7,0.02997,1597.01
10.8,0.03037,1616.61
10.9,0.03076,1638.5
11,0.03118,1648.65
11.1,0.03157,1654.51
11.2,0.03199,1673.94
11.3,0.03241,1705.45
11.4,0.0328,1720.23
11.5,0.03317,1746.51
11.6,0.03363,1777.69
11.7,0.03407,1793.91
11.8,0.03446,1822.52
11.9,0.03488,1838.84
12,0.03531,1848.43
12.1,0.03574,1863.37
12.2,0.03615,1879.55
12.3,0.0365,1894.57
12.4,0.03693,1928.12
12.5,0.03742,1939.77
12.6,0.03784,1962.02
12.7,0.03824,1984.73
12.8,0.03869,2014.67
12.9,0.03921,2034.75
13,0.03957,2055.5
13.1,0.04,2069.2
13.2,0.04043,2086.8
13.3,0.04088,2108.01
13.4,0.04135,2132.28
13.5,0.04169,2151.76
13.6,0.04211,2180.47
13.7,0.04252,2194.73
13.8,0.04293,2219.32
13.9,0.04336,2237.4
14,0.04384,2252.1
14.1,0.04427,2261.95
14.2,0.04469,2285.28
14.3,0.0452,2310.93
14.4,0.04566,2338.1
14.5,0.04609,2361.45
14.6,0.04655,2395.65
14.7,0.04693,2410.74
14.8,0.04734,2443.01
14.9,0.0478,2460.04
15,0.04824,2471.4
15.1,0.04873,2481.12
15.2,0.04923,2495.22
15.3,0.04969,2524.69
15.4,0.05013,2544.49
15.5,0.05056,2569.21
15.6,0.05101,2604.21
15.7,0.0515,2632.32
15.8,0.0519,2652.17
15.9,0.0524,2679.27
16,0.05288,2689.54
16.1,0.05332,2709.54
16.2,0.05368,2728.32
16.3,0.05407,2752.68
16.4,0.05451,2765.83
16.5,0.05504,2792.1
16.6,0.0554,2807
16.7,0.05589,2840.94
16.8,0.05641,2861.39
16.9,0.05681,2879.57
17,0.05721,2900.02
17.1,0.05772,2923.09
17.2,0.0582,2954.23
17.3,0.05868,2978.04
17.4,0.0591,3013.1
17.5,0.05956,3028.56
17.6,0.05995,3056.34
17.7,0.06042,3069.95
17.8,0.06092,3080.31
17.9,0.06131,3089.38
18,0.06186,3107.74
18.1,0.06231,3132.27
18.2,0.06271,3166.07
18.3,0.06321,3187.4
18.4,0.06371,3222.31
18.5,0.06425,3248.43
18.6,0.0647,3275.51
18.7,0.06513,3303.71
18.8,0.06566,3314.22
18.9,0.06607,3329.84
19,0.06645,3343.02
19.1,0.06692,3364.46
19.2,0.06737,3386.78
19.3,0.06791,3411.14
19.4,0.06834,3447.72
19.5,0.06883,3472.41
19.6,0.06935,3492.14
19.7,0.06977,3514.77
19.8,0.07019,3529.44
19.9,0.07066,3555.68
20,0.07112,3594.37
20.1,0.0716,3613.21
20.2,0.07207,3636.26
20.3,0.0725,3651.17
20.4,0.07303,3673.24
20.5,0.07349,3690.71
20.6,0.07396,3705.3
20.7,0.07434,3732.53
20.8,0.07489,3756.09
20.9,0.07532,3785.96
21,0.07584,3821.23
21.1,0.07637,3848.33
21.2,0.07686,3882.52
21.3,0.07738,3907.55
21.4,0.07789,3919.2
21.5,0.0784,3926.61
21.6,0.07887,3943.01
21.7,0.07939,3967.44
21.8,0.07985,3994.64
21.9,0.0803,4017.79
22,0.08081,4051.93
22.1,0.08132,4087.15
22.2,0.0818,4103
22.3,0.08225,4134.45
22.4,0.08284,4149.66
22.5,0.0833,4170.86
22.6,0.08371,4202.94
22.7,0.08425,4222.16
22.8,0.08477,4245.84
22.9,0.08524,4268.9
23,0.08569,4297.79
23.1,0.08617,4315.47
23.2,0.08666,4335.23
23.3,0.0872,4359.14
23.4,0.08764,4382.61
23.5,0.08819,4422.74
23.6,0.08863,4448.25
23.7,0.08912,4470.42
23.8,0.08963,4502.56
23.9,0.09009,4518.39
24,0.09065,4533.57
24.1,0.09115,4553.66
24.2,0.09167,4574.94
24.3,0.09226,4608.72
24.4,0.09272,4633.6
24.5,0.09317,4662.77
24.6,0.09372,4698.29
24.7,0.09424,4721.31
24.8,0.09472,4747.74
24.9,0.09523,4755.64
25,0.09577,4773.37
25.1,0.09626,4802.84
25.2,0.09676,4826.5
25.3,0.09732,4863.79
25.4,0.09787,4881.79
25.5,0.09838,4914.13
25.6,0.09881,4935.51
25.7,0.09935,4959.84
25.8,0.09985,4982.59
25.9,0.10039,5017.54
26,0.10088,5043
26.1,0.10139,5066.76
26.2,0.1019,5089.396
26.3,0.10235,5120.48
26.4,0.1029,5149.38
26.5,0.10341,5161.55
26.6,0.10394,5177.93
26.7,0.10446,5203.89
26.8,0.10501,5237.97
26.9,0.10546,5274.95
27,0.106,5295.53
27.1,0.10654,5324.06
27.2,0.10706,5347.67
27.3,0.10763,5360.7
27.4,0.10818,5385.97
27.5,0.10871,5420.84
27.6,0.10927,5445.48
27.7,0.10976,5474.12
27.8,0.11032,5496.63
27.9,0.11085,5533.84
28,0.11144,5562.31
28.1,0.11205,5578.17
28.2,0.11247,5591.25
28.3,0.113,5617.84
28.4,0.11349,5645.46
28.5,0.11399,5676.93
28.6,0.11447,5712.74
28.7,0.11497,5746.03
28.8,0.11555,5766.37
28.9,0.1161,5777.59
29,0.11658,5800.54
29.1,0.11708,5826.25
29.2,0.1177,5856.69
29.3,0.11823,5886.71
29.4,0.11882,5903.16
29.5,0.11929,5944.29
29.6,0.11983,5967.07
29.7,0.12034,5989.19
29.8,0.1209,6014.34
29.9,0.12141,6038.17
30,0.12206,6066.47
30.1,0.12258,6102.88
30.2,0.12312,6127.19
30.3,0.12362,6156.98
30.4,0.12419,6177.17
30.5,0.12469,6186.97
30.6,0.12513,6211.42
30.7,0.1257,6250.83
30.8,0.12626,6281.42
30.9,0.12679,6318.95
31,0.1273,6343.51
31.1,0.12781,6374.94
31.2,0.12841,6397.21
31.3,0.1289,6410.66
31.4,0.12948,6428.24
31.5,0.13004,6458.98
31.6,0.1306,6484.09
31.7,0.13117,6510.93
31.8,0.1317,6561.2
31.9,0.13228,6585.64
32,0.13281,6603.03
32.1,0.13327,6623.48
32.2,0.13388,6655.28
32.3,0.13442,6689.09
32.4,0.13504,6715.59
32.5,0.13559,6732.67
32.6,0.13622,6762.875
32.7,0.13676,6787.67
32.8,0.13737,6809.47
32.9,0.13799,6843.07
33,0.13847,6869.21
33.1,0.13899,6900.91
33.2,0.13964,6940.07
33.3,0.14014,6970.33
33.4,0.14066,6997.97
33.5,0.14121,7009.07
33.6,0.14186,7019.26
33.7,0.14228,7038.47
33.8,0.14283,7080.24
33.9,0.14338,7113.49
34,0.14397,7151.08
34.1,0.14454,7184.69
34.2,0.145,7208.6
34.3,0.14556,7236.03
34.4,0.14613,7255.22
34.5,0.14662,7277.54
34.6,0.14714,7296.75
34.7,0.14767,7321.09
34.8,0.14828,7350.95
34.9,0.1488,7397.04
35,0.14936,7418.61
35.1,0.14994,7438.46
35.2,0.15051,7464
35.3,0.15114,7506.52
35.4,0.15169,7542.1
35.5,0.15228,7565.55
35.6,0.15296,7593.81
35.7,0.1535,7609.16
35.8,0.15403,7624.5
35.9,0.15462,7644.58
36,0.1552,7682.33
36.1,0.15577,7711.7
36.2,0.15632,7749.48
36.3,0.15687,7786.22
36.4,0.15743,7822.57
36.5,0.15798,7846.4
36.6,0.15855,7854.7
36.7,0.15903,7871.58
36.8,0.15969,7905.28
36.9,0.16022,7937.41
37,0.16082,7970.41
37.1,0.16139,8008.37
37.2,0.162,8034.22
37.3,0.16249,8063.15
37.4,0.16305,8084.42
37.5,0.16365,8119.77
37.6,0.16422,8144.146
37.7,0.16482,8167.875
37.8,0.16547,8200.5
37.9,0.16601,8227.68
38,0.16662,8247.7
38.1,0.16719,8268.55
38.2,0.16773,8303.93
38.3,0.16834,8339.28
38.4,0.1689,8385.36
38.5,0.16954,8415.37
38.6,0.17008,8438.73
38.7,0.17063,8452.94
38.8,0.17124,8471.03
38.9,0.17174,8498.46
39,0.17231,8534.16
39.1,0.17284,8558.03
39.2,0.17356,8596.76
39.3,0.17417,8639.31
39.4,0.17473,8669.95
39.5,0.17531,8683.6
39.6,0.17594,8701.32
39.7,0.17652,8738.97
39.8,0.17707,8765.48
39.9,0.17764,8794.38
40,0.1783,8833.58
40.1,0.17891,8853.46
40.2,0.17943,8868.87
40.3,0.1801,8902.47
40.4,0.18072,8935.78
40.5,0.18126,8970.12
40.6,0.18183,8992.96
40.7,0.18245,9024.14
40.8,0.18303,9059.67
40.9,0.18364,9082.86
41,0.1842,9102.43
41.1,0.18471,9128.72
41.2,0.1853,9164.67
41.3,0.18589,9203.65
41.4,0.18647,9236.57
41.5,0.18699,9265.62
41.6,0.18766,9283.21
41.7,0.18813,9295.05
41.8,0.1887,9327.2
41.9,0.18938,9366.52
42,0.18995,9398.51
42.1,0.19056,9422.79
42.2,0.19114,9462.15
42.3,0.19172,9487.56
42.4,0.19239,9510.21
42.5,0.19305,9529.53
42.6,0.19368,9567.3
42.7,0.19439,9596.26
42.8,0.195,9634.79
42.9,0.19566,9677.35
43,0.19624,9696.22
43.1,0.19685,9709.27
43.2,0.19745,9739.36
43.3,0.19799,9775.375
43.4,0.19859,9805.93
43.5,0.1993,9829.3
43.6,0.19989,9869.56
43.7,0.20041,9893.03
43.8,0.20099,9910.94
43.9,0.20156,9946.6
44,0.20221,9979.66
44.1,0.20276,10009.4
44.2,0.20334,10043.1
44.3,0.20402,10081.3
44.4,0.20462,10099.6
44.5,0.20513,10110.1
44.6,0.20575,10127.9
44.7,0.20639,10178.1
44.8,0.20699,10213.6
44.9,0.20754,10245.3
45,0.20822,10281.3
45.1,0.20886,10310.6
45.2,0.20945,10328
45.3,0.21,10349
45.4,0.21067,10378.4
45.5,0.21131,10408.2
45.6,0.21192,10435
45.7,0.21252,10481.2
45.8,0.21308,10511.6
45.9,0.21371,10528.4
46,0.21436,10551.5
46.1,0.21497,10586.9
46.2,0.2156,10623.9
46.3,0.21625,10649.3
46.4,0.21692,10680
46.5,0.21764,10700.4
46.6,0.21824,10720
46.7,0.21885,10741.4
46.8,0.21946,10794.4
46.9,0.22009,10821.5
47,0.22067,10857.6
47.1,0.22134,10899.2
47.2,0.22195,10928.2
47.3,0.22262,10938.5
47.4,0.22326,10949.4
47.5,0.22383,10974.7
47.6,0.22445,11015.2
47.7,0.22508,11047.8
47.8,0.22568,11098.5
47.9,0.22632,11121
48,0.22702,11148.1
48.1,0.22765,11173
48.2,0.22826,11204.6
48.3,0.22889,11233.2
48.4,0.22959,11255.1
48.5,0.23018,11288.6
48.6,0.23082,11325.3
48.7,0.23144,11351
48.8,0.23207,11369.8
48.9,0.23265,11406.6
49,0.2333,11443.7
49.1,0.23395,11481.8
49.2,0.2346,11512.8
49.3,0.23524,11533.7
49.4,0.23585,11544.1
49.5,0.23648,11563.9
49.6,0.23719,11604
49.7,0.238,11643.4
49.8,0.23866,11665.9
49.9,0.23947,11712.4
50,0.24023,11751.1
50.1,0.24087,11775.5
50.2,0.24155,11784.8
50.3,0.24216,11804.6
50.4,0.24282,11833.4
50.5,0.24351,11859.6
50.6,0.24381,11864.4
50.7,0.2447,11903.1
50.8,0.24545,11943.7
50.9,0.24607,11959
51,0.24674,11989.5
51.1,0.24748,12025
51.2,0.24826,12062.5
51.3,0.24896,12087.5
51.4,0.2497,12113.8
51.5,0.25044,12144.2
51.6,0.25118,12164.5
51.7,0.25198,12190.4
51.8,0.25268,12215.9
51.9,0.25341,12255.2
52,0.25412,12299.3
52.1,0.2549,12336.7
52.2,0.25572,12363.5
52.3,0.25653,12379.7
52.4,0.25717,12388.7
52.5,0.25786,12417.5
52.6,0.25864,12461.5
52.7,0.2594,12493.7
52.8,0.26008,12528.3
52.9,0.26083,12568.4
53,0.2615,12587.7
53.1,0.26228,12615.2
53.2,0.26305,12633.3
53.3,0.26378,12664.2
53.4,0.26436,12688.4
53.5,0.26507,12723.8
53.6,0.26576,12765.2
53.7,0.26652,12785.1
53.8,0.26722,12801.3
53.9,0.26982,12683.3
54,0.27126,12699
54.1,0.27232,12744.5
54.2,0.2734,12780.9
54.3,0.2744,12792.8
54.4,0.27533,12829.4
54.5,0.27612,12871.9
54.6,0.27697,12908.8
54.7,0.27778,12931.8
54.8,0.27865,12960.4
54.9,0.27937,12987.7
55,0.2801,13003.8
55.1,0.28094,13034.6
55.2,0.28169,13060
55.3,0.28248,13092.8
55.4,0.28328,13127.4
55.5,0.28412,13171.4
55.6,0.28504,13192
55.7,0.28574,13210.1
55.8,0.28656,13220.7
55.9,0.28734,13253.2
56,0.2881,13296.8
56.1,0.28892,13328.8
56.2,0.28969,13357.2
56.3,0.2906,13382.5
56.4,0.29141,13408.9
56.5,0.29225,13429.3
56.6,0.29307,13452.6
56.7,0.29389,13483.9
56.8,0.29474,13513
56.9,0.29561,13539.5
57,0.29643,13585.9
57.1,0.29724,13617
57.2,0.29822,13625.8
57.3,0.29913,13634.9
57.4,0.29997,13668.5
57.5,0.30086,13705.1
57.564,0.30614,13577.8
57.578,0.31048,13446.5
57.678,0.31535,13363.3
57.778,0.31716,13376.9
57.878,0.31886,13394.6
57.978,0.32005,13418.9
58.078,0.32121,13445.9
58.178,0.32241,13476.3
58.278,0.32357,13512.6
58.378,0.32492,13536
58.478,0.32631,13572.3
58.578,0.32808,13591.6
58.678,0.33019,13601.2
58.778,0.33406,13523
58.878,0.3361,13531
58.978,0.3379,13547.4
59.078,0.3394,13588.8
59.178,0.34218,13566.4
59.278,0.34488,13539.8
59.378,0.34634,13573.2
59.478,0.34918,13546.8
59.578,0.35224,13524.4
59.644,0.37137,13183.5
59.646,0.39219,12798.375
59.648,0.42008,12293.5
59.65,0.45283,11707.9
59.652,0.48928,11061.1
59.654,0.52859,10367.1
59.656,0.56962,9645.07
59.658,0.61129,8912.59
59.66,0.65294,8181.34
59.662,0.69414,7460.48
59.664,0.73437,6759.12
59.666,0.77314,6084.84
59.668,0.81005,5442.85
59.67,0.84488,4836.89
59.672,0.87751,4269.96
59.674,0.90786,3744.05
59.676,0.9359,3260.09
59.678,0.96158,2818.2
59.68,0.98488,2417.93
59.682,1.00581,2058.31
59.684,1.02445,1737.9
59.686,1.0409,1454.97
59.688,1.05532,1207.55
59.69,1.06788,993.459