File: FractureLab/Ti 0deg 1.csv
Time (s),Displacement (mm) ,Load (N),Width (mm),Base (mm),Final crack length (mm)
0,0.00001,-0.9744,25,9.45,6.93
0.1,-0.00003,-0.75392,,,
0.2,0,-0.61258,,,
0.3,0.00008,1.96709,,,
0.4,0.00029,8.69303,,,
0.5,0.0005,13.88118,,,
0.6,0.00067,19.71032,,,
0.7,0.00086,25.75273,,,
0.8,0.00106,32.64303,,,
0.9,0.00122,41.14278,,,
1,0.00138,63.14674,,,
1.1,0.00159,75.2018,,,
1.2,0.00183,84.56867,,,
1.3,0.00205,93.81493,,,
1.4,0.00231,118.769,,,
1.5,0.00252,136.777,,,
1.6,0.00265,147.876,,,
1.7,0.0029,161.1837,,,
1.8,0.00313,176.502,,,
1.9,0.0034,192.449,,,
2,0.00363,213.16,,,
2.1,0.00387,222.773,,,
2.2,0.00409,226.675,,,
2.3,0.00431,236.438,,,
2.4,0.00454,248.702,,,
2.5,0.00477,261.998,,,
2.6,0.00508,275.14,,,
2.7,0.00528,289.804,,,
2.8,0.00558,298.184,,,
2.9,0.00579,313.042,,,
3,0.00606,331.36,,,
3.1,0.00629,340.484,,,
3.2,0.00656,358.29,,,
3.3,0.00684,379.186,,,
3.4,0.00711,389.955,,,
3.5,0.00736,400.961,,,
3.6,0.00762,420.732,,,
3.7,0.00789,434.101,,,
3.8,0.00806,446.169,,,
3.9,0.00842,456.392,,,
4,0.0087,487.195,,,
4.1,0.009,507.263,,,
4.2,0.00931,519.814,,,
4.3,0.00955,544.067,,,
4.4,0.00982,554.002,,,
4.5,0.01013,571.629,,,
4.6,0.01045,593.904,,,
4.7,0.01076,604.513,,,
4.8,0.01098,615.796,,,
4.9,0.01131,628.062,,,
5,0.01167,640.071,,,
5.1,0.01195,651.753,,,
5.2,0.01229,664.14,,,
5.3,0.01259,695.193,,,
5.4,0.01288,710.472,,,
5.5,0.01319,730.5329,,,
5.6,0.01348,756.099,,,
5.7,0.0138,772.807,,,
5.8,0.01419,796.923,,,
5.9,0.01449,820.412,,,
6,0.01493,831.818,,,
6.1,0.0152,838.247,,,
6.2,0.01554,851.08,,,
6.3,0.01584,868.201,,,
6.4,0.01621,885.556,,,
6.5,0.01657,907.942,,,
6.6,0.01697,930.834,,,
6.7,0.01729,952.819,,,
6.8,0.01766,963.867,,,
6.9,0.01797,993.877,,,
7,0.01839,1009.23,,,
7.1,0.01879,1025.73,,,
7.2,0.01912,1047.7,,,
7.3,0.01952,1062.45,,,
7.4,0.01978,1075.17,,,
7.5,0.02018,1097.94,,,
7.6,0.02056,1119.64,,,
7.7,0.02093,1132.07,,,
7.8,0.02133,1162.64,,,
7.9,0.02178,1183.35,,,
8,0.02211,1216.63,,,
8.1,0.02254,1231.39,,,
8.2,0.0229,1244.64,,,
8.3,0.02331,1258.89,,,
8.4,0.02366,1274.08,,,
8.5,0.02409,1291.84,,,
8.6,0.02451,1327.21,,,
8.7,0.02486,1347.41,,,
8.8,0.02532,1375.26,,,
8.9,0.02565,1388.03,,,
9,0.02605,1421.11,,,
9.1,0.02645,1433,,,
9.2,0.02685,1447.67,,,
9.3,0.02729,1463.75,,,
9.4,0.02772,1487.96,,,
9.5,0.02807,1502.43,,,
9.6,0.02845,1528.04,,,
9.7,0.02892,1547.51,,,
9.8,0.02931,1575.24,,,
9.9,0.02971,1592.57,,,
10,0.03016,1625.89,,,
10.1,0.03058,1646.07,,,
10.2,0.03094,1661.99,,,
10.3,0.03134,1669.14,,,
10.4,0.03178,1684.88,,,
10.5,0.0322,1717.25,,,
10.6,0.03267,1736.74,,,
10.7,0.03307,1765.79,,,
10.8,0.03345,1794.48,,,
10.9,0.03387,1810.06,,,
11,0.03422,1841.8,,,
11.1,0.03465,1855.81,,,
11.2,0.03505,1865.67,,,
11.3,0.03544,1883.86,,,
11.4,0.03585,1900.65,,,
11.5,0.03627,1919.59,,,
11.6,0.03666,1947.2,,,
11.7,0.03709,1959.02,,,
11.8,0.03744,1985.62,,,
11.9,0.03783,2008.56,,,
12,0.0383,2035.29,,,
12.1,0.03873,2059.38,,,
12.2,0.03918,2079.39,,,
12.3,0.03955,2093.03,,,
12.4,0.04001,2115.8,,,
12.5,0.0404,2141.05,,,
12.6,0.0409,2157.81,,,
12.7,0.04128,2190.06,,,
12.8,0.0417,2207.13,,,
12.9,0.04209,2228.36,,,
13,0.04256,2249.78,,,
13.1,0.04302,2265.71,,,
13.2,0.04348,2275.41,,,
13.3,0.04398,2301.04,,,
13.4,0.04445,2327.75,,,
13.5,0.0449,2355.57,,,
13.6,0.04537,2380.92,,,
13.7,0.04578,2416.63,,,
13.8,0.04625,2433.47,,,
13.9,0.04668,2467.7,,,
14,0.04715,2481.35,,,
14.1,0.04757,2492.09,,,
14.2,0.04805,2505.49,,,
14.3,0.04846,2523.39,,,
14.4,0.04882,2551.88,,,
14.5,0.0493,2569.8,,,
14.6,0.04978,2608.38,,,
14.7,0.05018,2637.64,,,
14.8,0.05064,2661.67,,,
14.9,0.05111,2687.44,,,
15,0.05157,2704.7,,,
15.1,0.052,2720.8,,,
15.2,0.05242,2742.99,,,
15.3,0.0529,2770.32,,,
15.4,0.0533,2785.57,,,
15.5,0.05374,2812.23,,,
15.6,0.05421,2825.68,,,
15.7,0.05466,2860.22,,,
15.8,0.05503,2881.4,,,
15.9,0.05552,2898.86,,,
16,0.05594,2923.23,,,
16.1,0.05636,2948.36,,,
16.2,0.05687,2978.29,,,
16.3,0.05731,3006.68,,,
16.4,0.05773,3038.77,,,
16.5,0.05821,3060.48,,,
16.6,0.05869,3081.62,,,
16.7,0.05912,3094.36,,,
16.8,0.05961,3104.15,,,
16.9,0.06009,3122.13,,,
17,0.06063,3145.84,,,
17.1,0.06099,3181.22,,,
17.2,0.06142,3199.9,,,
17.3,0.06191,3239.57,,,
17.4,0.06246,3267.94,,,
17.5,0.06289,3296.93,,,
17.6,0.06337,3322.57,,,
17.7,0.06386,3334.51,,,
17.8,0.0643,3351.22,,,
17.9,0.06478,3372.94,,,
18,0.0652,3388.89,,,
18.1,0.06567,3420.28,,,
18.2,0.06613,3445.98,,,
18.3,0.06655,3481.52,,,
18.4,0.06702,3499.32,,,
18.5,0.06748,3524.52,,,
18.6,0.06796,3542.64,,,
18.7,0.06839,3566.13,,,
18.8,0.0688,3601.66,,,
18.9,0.06934,3621.52,,,
19,0.06979,3651.71,,,
19.1,0.0703,3665.99,,,
19.2,0.07069,3689.33,,,
19.3,0.07121,3708.87,,,
19.4,0.0717,3731.02,,,
19.5,0.07219,3754.77,,,
19.6,0.07262,3785.63,,,
19.7,0.07309,3812.42,,,
19.8,0.07357,3849.66,,,
19.9,0.07407,3872.94,,,
20,0.07446,3907.05,,,
20.1,0.07502,3928.35,,,
20.2,0.07547,3937.95,,,
20.3,0.07589,3949.51,,,
20.4,0.07636,3966.59,,,
20.5,0.07679,4001.42,,,
20.6,0.0773,4028.37,,,
20.7,0.07781,4061.1,,,
20.8,0.07831,4096.03,,,
20.9,0.07876,4116.11,,,
21,0.0792,4150.44,,,
21.1,0.07966,4162.53,,,
21.2,0.08015,4184.11,,,
21.3,0.08064,4218.6,,,
21.4,0.08114,4235.6,,,
21.5,0.0815,4260.93,,,
21.6,0.08202,4282.73,,,
21.7,0.08252,4314.41,,,
21.8,0.08298,4331.74,,,
21.9,0.08342,4351.71,,,
22,0.08393,4376.49,,,
22.1,0.08441,4405.59,,,
22.2,0.0849,4444.94,,,
22.3,0.08536,4473.39,,,
22.4,0.08584,4491.89,,,
22.5,0.08632,4523.76,,,
22.6,0.08679,4539.85,,,
22.7,0.08728,4553.47,,,
22.8,0.08776,4577.67,,,
22.9,0.08821,4603.3,,,
23,0.08877,4630.49,,,
23.1,0.08922,4664.77,,,
23.2,0.08973,4690.55,,,
23.3,0.0902,4726.43,,,
23.4,0.09067,4756.88,,,
23.5,0.09117,4768.11,,,
23.6,0.09163,4780.56,,,
23.7,0.0921,4805.93,,,
23.8,0.09259,4835.62,,,
23.9,0.09304,4867.63,,,
24,0.09356,4890.45,,,
24.1,0.09401,4925.19,,,
24.2,0.09451,4948.29,,,
24.3,0.09492,4967.04,,,
24.4,0.09538,4991.36,,,
24.5,0.09583,5015.46,,,
24.6,0.0963,5053.11,,,
24.7,0.09681,5075.39,,,
24.8,0.09729,5098.23,,,
24.9,0.09782,5135.09,,,
25,0.09829,5163.72,,,
25.1,0.09878,5175.05,,,
25.2,0.0992,5191.65,,,
25.3,0.09973,5215.5,,,
25.4,0.10025,5250.71,,,
25.5,0.10069,5286.979,,,
25.6,0.10121,5310.64,,,
25.7,0.10174,5342.53,,,
25.8,0.10224,5364.33,,,
25.9,0.10273,5376.38,,,
26,0.10322,5399.75,,,
26.1,0.10375,5438.4,,,
26.2,0.10424,5463.7,,,
26.3,0.10479,5495.21,,,
26.4,0.1052,5515.95,,,
26.5,0.10573,5552.38,,,
26.6,0.10624,5580.59,,,
26.7,0.10665,5594.396,,,
26.8,0.10715,5608.81,,,
26.9,0.10768,5640.66,,,
27,0.10813,5662.63,,,
27.1,0.10861,5693.97,,,
27.2,0.10909,5729.42,,,
27.3,0.1096,5763.83,,,
27.4,0.11012,5786.89,,,
27.5,0.1106,5796.77,,,
27.6,0.11107,5824.62,,,
27.7,0.11159,5858.59,,,
27.8,0.11209,5887.66,,,
27.9,0.11259,5910.81,,,
28,0.11305,5933.48,,,
28.1,0.11358,5970.41,,,
28.2,0.11407,5992.86,,,
28.3,0.11458,6012.98,,,
28.4,0.11504,6037.12,,,
28.5,0.11558,6073.11,,,
28.6,0.11607,6092.89,,,
28.7,0.11654,6127.77,,,
28.8,0.11704,6155.86,,,
28.9,0.11755,6184.82,,,
29,0.11805,6197.29,,,
29.1,0.11854,6210.83,,,
29.2,0.11906,6247.104,,,
29.3,0.11957,6286.15,,,
29.4,0.12006,6322.76,,,
29.5,0.12065,6348.27,,,
29.6,0.12117,6381.8,,,
29.7,0.12167,6408.74,,,
29.8,0.12221,6422.12,,,
29.9,0.12276,6441.05,,,
30,0.12324,6463.73,,,
30.1,0.12368,6489.27,,,
30.2,0.12421,6518.75,,,
30.3,0.12466,6555.54,,,
30.4,0.12522,6590.76,,,
30.5,0.12573,6613.56,,,
30.6,0.12625,6636.18,,,
30.7,0.12667,6661.28,,,
30.8,0.12727,6700.43,,,
30.9,0.12782,6728.01,,,
31,0.12834,6746.53,,,
31.1,0.12881,6775.12,,,
31.2,0.12936,6799.79,,,
31.3,0.12985,6818.8,,,
31.4,0.13039,6854.34,,,
31.5,0.13085,6882.02,,,
31.6,0.13137,6914.1,,,
31.7,0.13197,6953.7,,,
31.8,0.13242,6981.33,,,
31.9,0.13295,7011.19,,,
32,0.1335,7025.66,,,
32.1,0.13404,7036.66,,,
32.2,0.13456,7059.05,,,
32.3,0.1351,7097.2,,,
32.4,0.13554,7131.62,,,
32.5,0.13608,7166.84,,,
32.6,0.13658,7200.95,,,
32.7,0.13707,7223.39,,,
32.8,0.13756,7251.45,,,
32.9,0.13807,7271.92,,,
33,0.13862,7296.08,,,
33.1,0.13909,7314.51,,,
33.2,0.13963,7344.56,,,
33.3,0.14011,7374.44,,,
33.4,0.14067,7417.54,,,
33.5,0.14126,7438.25,,,
33.6,0.14178,7466.94,,,
33.7,0.14234,7495.26,,,
33.8,0.14288,7537.03,,,
33.9,0.14336,7568.36,,,
34,0.14385,7591.53,,,
34.1,0.14434,7614.06,,,
34.2,0.14494,7631.34,,,
34.3,0.14541,7646.59,,,
34.4,0.14593,7676.7,,,
34.5,0.1465,7718.64,,,
34.6,0.14705,7739.37,,,
34.7,0.14761,7780.97,,,
34.8,0.14811,7822.69,,,
34.9,0.14868,7852.36,,,
35,0.14919,7866.61,,,
35.1,0.14971,7879.75,,,
35.2,0.15022,7909.25,,,
35.3,0.15084,7939.56,,,
35.4,0.15133,7977.1,,,
35.5,0.15183,8016.28,,,
35.6,0.15233,8040.69,,,
35.7,0.15289,8069.41,,,
35.8,0.15342,8094.25,,,
35.9,0.15397,8123.47,,,
36,0.15448,8153.48,,,
36.1,0.15502,8178.24,,,
36.2,0.15556,8204.04,,,
36.3,0.1561,8237.97,,,
36.4,0.15663,8260.91,,,
36.5,0.15712,8281.23,,,
36.6,0.15772,8314.87,,,
36.7,0.15829,8350.16,,,
36.8,0.1588,8395.37,,,
36.9,0.15936,8424.14,,,
37,0.15997,8452.02,,,
37.1,0.16046,8468.21,,,
37.2,0.16101,8483.63,,,
37.3,0.16156,8511.47,,,
37.4,0.16215,8550.47,,,
37.5,0.16271,8578.14,,,
37.6,0.16324,8613.04,,,
37.7,0.16373,8655.89,,,
37.8,0.16428,8688.17,,,
37.9,0.16479,8699.52,,,
38,0.16537,8720.8,,,
38.1,0.16599,8757.63,,,
38.2,0.16651,8787.14,,,
38.3,0.16704,8815.63,,,
38.4,0.16747,8852.45,,,
38.5,0.16803,8871.59,,,
38.6,0.16858,8892.14,,,
38.7,0.16915,8925.33,,,
38.8,0.16961,8962.22,,,
38.9,0.17015,8995.9,,,
39,0.17084,9016.89,,,
39.1,0.17131,9053.61,,,
39.2,0.17182,9082.98,,,
39.3,0.17237,9103.92,,,
39.4,0.17293,9125.43,,,
39.5,0.17343,9161.28,,,
39.6,0.17404,9196.87,,,
39.7,0.17463,9231.78,,,
39.8,0.17519,9265.82,,,
39.9,0.17571,9293.78,,,
40,0.17626,9302.5,,,
40.1,0.1769,9328.28,,,
40.2,0.1775,9369.41,,,
40.3,0.17798,9401.27,,,
40.4,0.17857,9427.51,,,
40.5,0.17917,9465.27,,,
40.6,0.17972,9494.98,,,
40.7,0.18026,9518.25,,,
40.8,0.18086,9538.45,,,
40.9,0.18142,9575.14,,,
41,0.18193,9603.96,,,
41.1,0.18248,9632.57,,,
41.2,0.18303,9682.21,,,
41.3,0.18362,9709.08,,,
41.4,0.18413,9719.35,,,
41.5,0.18468,9744.11,,,
41.6,0.18523,9784.01,,,
41.7,0.18587,9819.88,,,
41.8,0.1864,9841.38,,,
41.9,0.18691,9872.41,,,
42,0.18746,9906.07,,,
42.1,0.188,9923.46,,,
42.2,0.18858,9958.47,,,
42.3,0.1892,9993.09,,,
42.4,0.18976,10024.9,,,
42.5,0.19033,10057.5,,,
42.6,0.19086,10094.5,,,
42.7,0.19142,10114.6,,,
42.8,0.19204,10126.7,,,
42.9,0.19258,10145.3,,,
43,0.19313,10194.9,,,
43.1,0.19369,10229.8,,,
43.2,0.1943,10263.7,,,
43.3,0.19489,10300.6,,,
43.4,0.1954,10329,,,
43.5,0.19597,10345.9,,,
43.6,0.19647,10370.6,,,
43.7,0.19706,10405.1,,,
43.8,0.19762,10428.8,,,
43.9,0.19822,10455.3,,,
44,0.19884,10505.1,,,
44.1,0.19937,10532.7,,,
44.2,0.19993,10548.4,,,
44.3,0.20049,10575.9,,,
44.4,0.20115,10620.1,,,
44.5,0.20166,10649.3,,,
44.6,0.20224,10673.7,,,
44.7,0.20281,10703,,,
44.8,0.20341,10728.7,,,
44.9,0.20399,10745.4,,,
45,0.20461,10786.5,,,
45.1,0.20514,10828.5,,,
45.2,0.20573,10856,,,
45.3,0.20633,10897.6,,,
45.4,0.20691,10935,,,
45.5,0.20744,10953.2,,,
45.6,0.20803,10961.5,,,
45.7,0.20858,10981.7,,,
45.8,0.20918,11022.3,,,
45.9,0.20975,11053.1,,,
46,0.21035,11100.2,,,
46.1,0.21092,11133.2,,,
46.2,0.21148,11158.9,,,
46.3,0.21211,11186.6,,,
46.4,0.21272,11218.7,,,
46.5,0.21329,11247.9,,,
46.6,0.21393,11268.8,,,
46.7,0.21452,11302,,,
46.8,0.2151,11339.9,,,
46.9,0.2157,11366.6,,,
47,0.21631,11388.8,,,
47.1,0.21681,11421.7,,,
47.2,0.21745,11462,,,
47.3,0.21812,11499.1,,,
47.4,0.21867,11531.8,,,
47.5,0.21929,11551.2,,,
47.6,0.21984,11561.4,,,
47.7,0.22047,11583.8,,,
47.8,0.22111,11634.5,,,
47.9,0.22167,11668.2,,,
48,0.22225,11700.3,,,
48.1,0.2229,11748.6,,,
48.2,0.22352,11781.2,,,
48.3,0.2241,11795.2,,,
48.4,0.22468,11811.8,,,
48.5,0.22527,11839.8,,,
48.6,0.2258,11866.7,,,
48.7,0.2264,11898.6,,,
48.8,0.22699,11950.4,,,
48.9,0.22759,11970,,,
49,0.22812,11992.8,,,
49.1,0.22863,12025.4,,,
49.2,0.22925,12067.125,,,
49.3,0.22987,12098.3,,,
49.4,0.23046,12120.2,,,
49.5,0.2311,12151.7,,,
49.6,0.23171,12178.1,,,
49.7,0.23241,12202.5,,,
49.8,0.23298,12230.1,,,
49.9,0.23355,12265.2,,,
50,0.23418,12310.9,,,
50.1,0.23486,12350.3,,,
50.2,0.23547,12381.4,,,
50.3,0.23611,12396.1,,,
50.4,0.23671,12408.2,,,
50.5,0.23735,12443.3,,,
50.6,0.23801,12484.7,,,
50.7,0.23853,12511.4,,,
50.8,0.23927,12551.6,,,
50.9,0.23991,12589.7,,,
51,0.24053,12614.5,,,
51.1,0.24115,12635.6,,,
51.2,0.24181,12657.4,,,
51.3,0.24255,12690,,,
51.4,0.2432,12716,,,
51.5,0.2438,12752,,,
51.6,0.2444,12791,,,
51.7,0.24509,12802.8,,,
51.8,0.24587,12824.1,,,
51.9,0.24675,12856.8,,,
52,0.24747,12900.8,,,
52.1,0.24816,12933.9,,,
52.2,0.24881,12961.3,,,
52.3,0.24949,12993.8,,,
52.4,0.25012,13014,,,
52.5,0.25088,13038.8,,,
52.6,0.25154,13066.6,,,
52.7,0.25223,13096.1,,,
52.8,0.2529,13128.9,,,
52.9,0.25354,13171.4,,,
53,0.25424,13203.3,,,
53.1,0.25556,13167.7,,,
53.2,0.25726,13185.9,,,
53.3,0.25835,13209,,,
53.4,0.25908,13228.6,,,
53.5,0.25986,13241.7,,,
53.6,0.2606,13288.2,,,
53.7,0.26135,13322.1,,,
53.8,0.26206,13354.5,,,
53.9,0.26284,13381.8,,,
54,0.26362,13414.7,,,
54.1,0.26427,13438.1,,,
54.2,0.26501,13462.7,,,
54.3,0.26569,13491.5,,,
54.4,0.26638,13527.3,,,
54.5,0.26704,13550.7,,,
54.578,0.27529,13419.8,,,
54.584,0.28289,13256.9,,,
54.59,0.29077,13087.9,,,
54.596,0.2979,12933.9,,,
54.602,0.30378,12805.6,,,
54.61,0.30962,12679.7,,,
54.63,0.31577,12551.8,,,
54.73,0.31548,12613.2,,,
54.83,0.31655,12636,,,
54.93,0.31756,12663.5,,,
55.03,0.31861,12697.8,,,
55.13,0.31971,12730.9,,,
55.23,0.32073,12774.7,,,
55.33,0.32175,12800.9,,,
55.43,0.32278,12816.5,,,
55.53,0.32377,12858.2,,,
55.63,0.32484,12902.5,,,
55.73,0.32591,12936.8,,,
55.83,0.32685,12964.5,,,
55.93,0.32778,12995.1,,,
56.03,0.32873,13012.7,,,
56.13,0.3297,13037.7,,,
56.23,0.33084,13067.1,,,
56.33,0.33183,13099.6,,,
56.43,0.33293,13132.9,,,
56.53,0.33421,13163,,,
56.63,0.33571,13196.2,,,
56.73,0.33676,13214.3,,,
56.83,0.33796,13229,,,
56.93,0.33901,13243.4,,,
57.03,0.34114,13234.2,,,
57.13,0.34281,13245.8,,,
57.23,0.34408,13285,,,
57.33,0.34518,13313.8,,,
57.43,0.34682,13323.7,,,
57.53,0.34828,13349.2,,,
57.63,0.34961,13372.2,,,
57.73,0.3512,13384.5,,,
57.83,0.35239,13411.8,,,
57.93,0.35385,13424.5,,,
58.03,0.3551,13444.5,,,
58.13,0.35638,13465,,,
58.23,0.35758,13480.7,,,
58.326,0.36536,13338.3,,,
58.33,0.37301,13142.8,,,
58.334,0.38237,12904.6,,,
58.336,0.3874,12777.6,,,
58.338,0.39254,12648.6,,,
58.34,0.39768,12519.8,,,
58.342,0.40276,12392.7,,,
58.346,0.41255,12147,,,
58.35,0.42172,11916.3,,,
58.354,0.43005,11706.5,,,
58.358,0.43749,11520.4,,,
58.362,0.444,11360.1,,,
58.366,0.44954,11225.8,,,
58.372,0.45608,11070.4,,,
58.38,0.46201,10936.625,,,
58.48,0.4684,10868.8,,,
58.58,0.471,10855.6,,,
58.668,0.47802,10723.4,,,
58.68,0.48434,10575.1,,,
58.69,0.48996,10449.7,,,
58.694,0.4988,10260.6,,,
58.696,0.51114,10016.5,,,
58.698,0.53023,9664.6,,,
58.7,0.55492,9236.79,,,
58.702,0.58372,8757.01,,,
58.704,0.61558,8236.49,,,
58.706,0.64973,7687.28,,,
58.708,0.68534,7124.22,,,
58.71,0.72166,6558.79,,,
58.712,0.758,5998.51,,,
58.714,0.79381,5450.15,,,
58.716,0.82866,4920.21,,,
58.718,0.86223,4413.59,,,
58.72,0.89428,3933.59,,,
58.722,0.92456,3482.71,,,
58.724,0.95289,3062.91,,,
58.726,0.97914,2675.25,,,
58.728,1.00327,2320.07,,,
58.73,1.0253,1997.25,,,
58.732,1.04529,1706.24,,,
58.734,1.06332,1446.08,,,
58.736,1.07945,1215.5,,,
58.738,1.09371,1013.02,,,
58.74,1.10617,837.039,,,
58.742,1.11695,685.787,,,
58.744,1.12624,557.429,,,
58.748,1.14073,361.899,,,
58.752,1.15031,235.581,,,
58.786,1.14628,367.477,,,
58.8,1.13791,496.898,,,
58.9,1.13507,561.887,,,
59,1.13666,563.271,,,
59.1,1.13871,565.5473,,,
59.2,1.14082,567.613,,,
59.3,1.1431,570.027,,,
59.4,1.14522,573.142,,,
59.5,1.14743,575.755,,,
59.6,1.14968,578.458,,,
59.7,1.15188,581.256,,,
59.8,1.15385,584.291,,,
59.9,1.1559,587.578,,,
60,1.15811,589.086,,,
60.1,1.16031,590.73,,,
60.2,1.16226,591.566,,,
60.3,1.16438,592.706,,,
60.4,1.16651,593.392,,,
60.5,1.16865,593.942,,,
60.6,1.17071,594.759,,,
60.7,1.17284,595.8725,,,
60.8,1.175,596.548,,,
60.9,1.17725,597.0415,,,
61,1.17931,597.857,,,
61.1,1.18146,598.381,,,
61.2,1.18352,598.939,,,
61.3,1.18559,600.715,,,
61.4,1.18752,601.005,,,
61.5,1.18964,601.408,,,
61.6,1.19183,602.987,,,
61.7,1.19402,602.794,,,
61.8,1.19611,603.557,,,
61.9,1.19818,603.4,,,
62,1.20042,604.235,,,
62.1,1.20266,602.447,,,
62.2,1.2048,601.545,,,
62.3,1.20703,600.816,,,
62.4,1.20928,600.623,,,