File: FractureLab/Ti 0deg 3.csv
Time (s),Displacement (mm) ,Load (N),Width (mm),Base (mm),Final crack length (mm)
0,-0.00036,-0.11564,25.0,9.5,6.48
0.1,-0.00033,-0.28873
0.2,-0.00033,-0.05047
0.3,-0.00025,2.52844
0.4,0.00006,9.67486
0.5,0.00018,18.16987
0.6,0.00024,36.06862
0.7,0.0002,47.98245
0.8,0.00026,54.84585
0.9,0.00035,61.10199
1,0.00043,66.39236
1.1,0.00059,70.71398
1.2,0.00078,78.27975
1.3,0.00088,90.64922
1.4,0.00106,105.4358
1.5,0.00113,117.201
1.6,0.00126,123.2827
1.7,0.00131,130.9314
1.8,0.00146,140.6053
1.9,0.00159,151.047
2,0.00175,160.983
2.1,0.00184,170.141
2.2,0.00197,182.558
2.3,0.0021,194.659
2.4,0.00226,203.395
2.5,0.00245,206.802
2.6,0.00265,210.33
2.7,0.00277,218.489
2.8,0.00296,228.849
2.9,0.00316,240.9557
3,0.00328,247.431
3.1,0.00352,260.625
3.2,0.00373,274.434
3.3,0.00394,281.2435
3.4,0.00412,293.2869
3.5,0.00429,304.857
3.6,0.0045,317.088
3.7,0.0048,327.56
3.8,0.00499,348.367
3.9,0.00522,363.816
4,0.00548,373.121
4.1,0.00575,384.924
4.2,0.0061,397.606
4.3,0.00644,413.908
4.4,0.00677,423.9216
4.5,0.00711,434.933
4.6,0.00747,454.373
4.7,0.00782,481.496
4.8,0.00821,496.452
4.9,0.00853,512.343
5,0.00894,530.836
5.1,0.0093,540.961
5.2,0.00973,562.135
5.3,0.01012,578.296
5.4,0.01057,590.8775
5.5,0.01099,601.331
5.6,0.01142,611.834
5.7,0.01179,622.837
5.8,0.01223,634.45
5.9,0.01269,649.776
6,0.01302,675.3
6.1,0.01339,690.597
6.2,0.01385,712.106
6.3,0.01414,738.943
6.4,0.01458,754.22
6.5,0.015,778.688
6.6,0.01543,800.998
6.7,0.01583,813.72
6.8,0.01626,818.991
6.9,0.0166,828.14
7,0.01716,845.68
7.1,0.01754,860.191
7.2,0.01795,885.164
7.3,0.01849,905.004
7.4,0.01896,928.392
7.5,0.01935,940.634
7.6,0.01976,959.184
7.7,0.02024,985.958
7.8,0.02068,998.462
7.9,0.02107,1019.35
8,0.02154,1037.48
8.1,0.02197,1049.16
8.2,0.02246,1065.59
8.3,0.02275,1088.73
8.4,0.02321,1104.74
8.5,0.02368,1122.53
8.6,0.02409,1151.89
8.7,0.02449,1171.1
8.8,0.02489,1203.14
8.9,0.02538,1218.51
9,0.02577,1230.87
9.1,0.02616,1240.98
9.2,0.02662,1256.58
9.3,0.02698,1275.37
9.4,0.02737,1309.65
9.5,0.02779,1332.43
9.6,0.02814,1356.55
9.7,0.02853,1369.76
9.8,0.02898,1398.98
9.9,0.02931,1414.38
10,0.02973,1427.58
10.1,0.03012,1443.57
10.2,0.03054,1465.74
10.3,0.03089,1482.24
10.4,0.03127,1507.84
10.5,0.03166,1524.83
10.6,0.03206,1550.38
10.7,0.03244,1569.09
10.8,0.03286,1603.71
10.9,0.03325,1623.18
11,0.03353,1642.92
11.1,0.03395,1649.65
11.2,0.0343,1661.58
11.3,0.03476,1687.33
11.4,0.03517,1715.26
11.5,0.03553,1740.21
11.6,0.03598,1775.5
11.7,0.03639,1792.47
11.8,0.03678,1823.09
11.9,0.03715,1839.37
12,0.03757,1848.46
12.1,0.03802,1866.66
12.2,0.03845,1884.73
12.3,0.03886,1906.82
12.4,0.03928,1933.32
12.5,0.03975,1949.19
12.6,0.04024,1972.85
12.7,0.04065,2000.14
12.8,0.04106,2024.46
12.9,0.04158,2051.12
13,0.04198,2066.47
13.1,0.04243,2084.98
13.2,0.04283,2104.97
13.3,0.04325,2131.84
13.4,0.04367,2155.51
13.5,0.04414,2181.56
13.6,0.04455,2197.93
13.7,0.04501,2221.59
13.8,0.04547,2240.42
13.9,0.04589,2253.14
14,0.04633,2264.78
14.1,0.04674,2293.875
14.2,0.04724,2321.87
14.3,0.04766,2347.48
14.4,0.04808,2380.81
14.5,0.0485,2404.41
14.6,0.04898,2435.72
14.7,0.04943,2457.73
14.8,0.04977,2469.81
14.9,0.05031,2479.21
15,0.05072,2491.32
15.1,0.05112,2516.85
15.2,0.05155,2542.15
15.3,0.05205,2567.98
15.4,0.05246,2602.9
15.5,0.05292,2632.43
15.6,0.05336,2656.23
15.7,0.0538,2682.09
15.8,0.05426,2691.82
15.9,0.05467,2716.59
16,0.05514,2738.42
16.1,0.0556,2759.86
16.2,0.05606,2780.72
16.3,0.05648,2797.89
16.4,0.05694,2826.48
16.5,0.05735,2853.58
16.6,0.05776,2874.45
16.7,0.0582,2892.65
16.8,0.05869,2918.37
16.9,0.05912,2947.04
17,0.05961,2974.69
17.1,0.06005,3010.05
17.2,0.06049,3030
17.3,0.06092,3059.35
17.4,0.06141,3072.15
17.5,0.0618,3081.25
17.6,0.06224,3092.39
17.7,0.06268,3117.22
17.8,0.06311,3151.31
17.9,0.06356,3170.77
18,0.06399,3207.47
18.1,0.06445,3232.74
18.2,0.06494,3265.61
18.3,0.06543,3299.24
18.4,0.06582,3312
18.5,0.06632,3326.04
18.6,0.06673,3341.15
18.7,0.06718,3364.22
18.8,0.06761,3387.11
18.9,0.06808,3411.3
19,0.0685,3453.03
19.1,0.06891,3476.2
19.2,0.06944,3494.93
19.3,0.06986,3515.7
19.4,0.07031,3535.97
19.5,0.07073,3567.88
19.6,0.07115,3598.51
19.7,0.07166,3622.74
19.8,0.07208,3640.29
19.9,0.07254,3664.55
20,0.07298,3683.01
20.1,0.07347,3699.51
20.2,0.07396,3728.31
20.3,0.07434,3753.89
20.4,0.07481,3783.04
20.5,0.07518,3818.72
20.6,0.07563,3846.33
20.7,0.076,3878.6
20.8,0.07643,3906.3
20.9,0.07689,3918.98
21,0.07732,3926.78
21.1,0.07775,3941.96
21.2,0.07818,3969.85
21.3,0.07867,4000.53
21.4,0.07909,4030.92
21.5,0.07952,4062.43
21.6,0.07996,4093.65
21.7,0.08042,4123.18
21.8,0.08085,4140.2
21.9,0.08122,4159.01
22,0.08171,4193.4
22.1,0.08209,4211.33
22.2,0.08256,4239.48
22.3,0.08296,4256.58
22.4,0.08336,4288.92
22.5,0.08382,4311.17
22.6,0.08433,4328.78
22.7,0.08474,4352.74
22.8,0.08521,4377.12
22.9,0.08566,4421.05
23,0.0861,4449.54
23.1,0.08653,4471.18
23.2,0.087,4504.92
23.3,0.08747,4520.68
23.4,0.08793,4534.93
23.5,0.08833,4556.62
23.6,0.08876,4581.31
23.7,0.08921,4612.96
23.8,0.0897,4644.5
23.9,0.09007,4672.27
24,0.09046,4708.4
24.1,0.09097,4737.88
24.2,0.09139,4750.59
24.3,0.09185,4763.6
24.4,0.09231,4792.26
24.5,0.09273,4820.93
24.6,0.09317,4853.33
24.7,0.09358,4875.53
24.8,0.0941,4910.79
24.9,0.09446,4934.11
25,0.0949,4957.8
25.1,0.0953,4980.17
25.2,0.09577,5012.76
25.3,0.09623,5041.04
25.4,0.09668,5064.35
25.5,0.09708,5093.45
25.6,0.09764,5124.34
25.7,0.09813,5152.83
25.8,0.09864,5165.34
25.9,0.099,5184.24
26,0.09942,5213.625
26.1,0.0999,5246.23
26.2,0.10043,5283.95
26.3,0.10082,5309.6
26.4,0.10125,5338.09
26.5,0.10169,5353.58
26.6,0.1021,5370.33
26.7,0.10254,5400.41
26.8,0.103,5438.61
26.9,0.10339,5467.04
27,0.10389,5491.05
27.1,0.1043,5527.1
27.2,0.10472,5552.94
27.3,0.10513,5574.97
27.4,0.10556,5587.61
27.5,0.10595,5611.63
27.6,0.1064,5642.57
27.7,0.10684,5673.3
27.8,0.10726,5710.31
27.9,0.10769,5745.07
28,0.10812,5764.94
28.1,0.10859,5777.53
28.2,0.10906,5803.26
28.3,0.10944,5836.89
28.4,0.10996,5868.26
28.5,0.11045,5893.01
28.6,0.11086,5921.07
28.7,0.11119,5952.76
28.8,0.1117,5975.13
28.9,0.11217,6000.65
29,0.11263,6023.82
29.1,0.11312,6058.06
29.2,0.11356,6086.1
29.3,0.1141,6114.73
29.4,0.11445,6146.63
29.5,0.11494,6169.5
29.6,0.1154,6181.63
29.7,0.11589,6203.1
29.8,0.11635,6240.98
29.9,0.11684,6274.44
30,0.11737,6315.02
30.1,0.11787,6346.81
30.2,0.11831,6377.48
30.3,0.11875,6396.74
30.4,0.11923,6411.07
30.5,0.11973,6428.75
30.6,0.12006,6462.14
30.7,0.12054,6486.15
30.8,0.12101,6516.26
30.9,0.12152,6567.01
31,0.12195,6590.12
31.1,0.12238,6607.19
31.2,0.12282,6631.16
31.3,0.12336,6675.104
31.4,0.12381,6699.98
31.5,0.12434,6723.39
31.6,0.12477,6750.39
31.7,0.12523,6779.34
31.8,0.12568,6796.16
31.9,0.12613,6827.83
32,0.12661,6856.45
32.1,0.12718,6892.22
32.2,0.1276,6928.66
32.3,0.12808,6960.56
32.4,0.12859,6994.78
32.5,0.12903,7007.33
32.6,0.12952,7015
32.7,0.12998,7034.33
32.8,0.1305,7080.21
32.9,0.13102,7115.98
33,0.13151,7152.47
33.1,0.13196,7185.25
33.2,0.13244,7212.16
33.3,0.13294,7237.81
33.4,0.13336,7258.57
33.5,0.13374,7281.81
33.6,0.13425,7302.99
33.7,0.1347,7329.46
33.8,0.13515,7368.66
33.9,0.13565,7406.2
34,0.13607,7424.42
34.1,0.13656,7450.94
34.2,0.13703,7482.34
34.3,0.13759,7527.97
34.4,0.13812,7557.94
34.5,0.13854,7586.32
34.6,0.13908,7602.67
34.7,0.13953,7618.39
34.8,0.14001,7635.79
34.9,0.14047,7675.44
35,0.14104,7708.7
35.1,0.1415,7739.7
35.2,0.142,7781.08
35.3,0.14249,7821.31
35.4,0.14299,7846.04
35.5,0.14343,7854.12
35.6,0.14393,7872.46
35.7,0.14449,7907.86
35.8,0.14495,7941.4
35.9,0.14543,7979.71
36,0.14593,8013.89
36.1,0.14642,8040.66
36.2,0.14689,8067.3
36.3,0.1474,8092.53
36.4,0.14792,8132.75
36.5,0.14841,8151.42
36.6,0.14892,8176.21
36.7,0.14939,8212.78
36.8,0.14992,8239.96
36.9,0.15051,8255.97
37,0.151,8284.9
37.1,0.15151,8325.87
37.2,0.15202,8368.4
37.3,0.15256,8400.11
37.4,0.15317,8432.35
37.5,0.1536,8450.3
37.6,0.15419,8464.49
37.7,0.15469,8492.85
37.8,0.15521,8533.18
37.9,0.15578,8556.63
38,0.1563,8594.07
38.1,0.15691,8639.8
38.2,0.15741,8671.02
38.3,0.15797,8682.96
38.4,0.15848,8702.73
38.5,0.15902,8740.57
38.6,0.15957,8770.29
38.7,0.16009,8802.53
38.8,0.16057,8839.72
38.9,0.16111,8857.8
39,0.16164,8880.99
39.1,0.16209,8913.59
39.2,0.16263,8951.44
39.3,0.16318,8981.67
39.4,0.16367,9003.65
39.5,0.16415,9045.97
39.6,0.16473,9072.97
39.7,0.16526,9095.71
39.8,0.16578,9116.41
39.9,0.16626,9156.07
40,0.16683,9193.4
40.1,0.16743,9231.85
40.2,0.16785,9261.42
40.3,0.16842,9281.74
40.4,0.169,9292.94
40.5,0.16955,9329.38
40.6,0.17006,9365.73
40.7,0.17064,9397.14
40.8,0.17123,9427.67
40.9,0.17181,9468.9
41,0.17239,9491.83
41.1,0.17288,9513.41
41.2,0.17348,9535.59
41.3,0.17401,9577.34
41.4,0.17459,9606.53
41.5,0.17519,9652.1
41.6,0.17576,9688.82
41.7,0.17641,9699.56
41.8,0.17687,9721.59
41.9,0.17742,9755.92
42,0.17792,9795.52
42.1,0.17843,9820.51
42.2,0.17895,9850.22
42.3,0.17949,9886.65
42.4,0.18014,9905.33
42.5,0.18068,9940.46
42.6,0.18121,9974.51
42.7,0.1817,10005.5
42.8,0.18226,10039.2
42.9,0.18277,10078.9
43,0.18332,10098
43.1,0.18387,10110.9
43.2,0.18445,10132.8
43.3,0.18494,10183.2
43.4,0.18553,10216.7
43.5,0.18612,10252.2
43.6,0.18668,10291.4
43.7,0.18723,10318.6
43.8,0.18779,10333.8
43.9,0.18829,10359.3
44,0.18883,10392.4
44.1,0.18938,10418.3
44.2,0.18988,10456
44.3,0.19048,10499.2
44.4,0.19094,10523.7
44.5,0.19152,10542.4
44.6,0.19207,10577.1
44.7,0.19261,10616.4
44.8,0.19318,10642.7
44.9,0.19374,10671.5
45,0.19427,10697
45.1,0.19486,10719.6
45.2,0.19547,10744.2
45.3,0.19605,10800
45.4,0.1966,10826
45.5,0.19708,10865
45.6,0.19767,10904.7
45.7,0.19819,10932.4
45.8,0.19878,10938.7
45.9,0.19935,10955
46,0.20002,10995.4
46.1,0.20059,11029.6
46.2,0.20107,11068.7
46.3,0.20163,11111.3
46.4,0.20217,11136.2
46.5,0.2028,11164.6
46.6,0.20332,11192.1
46.7,0.20384,11224.6
46.8,0.20442,11245.4
46.9,0.20498,11275.6
47,0.2055,11315.6
47.1,0.20611,11347.6
47.2,0.20665,11365.3
47.3,0.20716,11404.1
47.4,0.20779,11446.7
47.5,0.20832,11481.8
47.6,0.20887,11517.1
47.7,0.20943,11535.7
47.8,0.20998,11545.8
47.9,0.21051,11570.2
48,0.21109,11621.5
48.1,0.21168,11653.2
48.2,0.2122,11685.8
48.3,0.21283,11731.5
48.4,0.21341,11765.7
48.5,0.21405,11779.3
48.6,0.21461,11797.9
48.7,0.21521,11826.8
48.8,0.21588,11858
48.9,0.21657,11904.5
49,0.21707,11944.1
49.1,0.2177,11960.2
49.2,0.21829,11995.7
49.3,0.2188,12031.6
49.4,0.2194,12066.7
49.5,0.21996,12091.2
49.6,0.22052,12122.6
49.7,0.22107,12148.5
49.8,0.22163,12167.9
49.9,0.22218,12196.5
50,0.22279,12229.3
50.1,0.22337,12273.6
50.2,0.22402,12316.5
50.3,0.22456,12355.5
50.4,0.22519,12378.2
50.5,0.22577,12384.9
50.6,0.22636,12413.8
50.7,0.22699,12459.1
50.8,0.2276,12490.1
50.9,0.22818,12526
51,0.22888,12568.3
51.1,0.22946,12591.2
51.2,0.23008,12617.5
51.3,0.23073,12639.4
51.4,0.23126,12674
51.5,0.2319,12703.5
51.6,0.23259,12748
51.7,0.23323,12780.4
51.8,0.23387,12788.2
51.9,0.23457,12826.8
52,0.23515,12874.1
52.1,0.23566,12909.4
52.2,0.23627,12930.4
52.3,0.23685,12962.9
52.4,0.23756,12990.9
52.5,0.23817,13011.3
52.6,0.23882,13044.1
52.7,0.23946,13074
52.8,0.24015,13111.8
52.9,0.2407,13157
53,0.24136,13189.8
53.1,0.24202,13210.4
53.2,0.24274,13225.5
53.3,0.24329,13270
53.4,0.24394,13305.4
53.5,0.24452,13341.8
53.6,0.24514,13370
53.7,0.24574,13403.4
53.8,0.2463,13424.7
53.9,0.24692,13450.7
54,0.24748,13481.5
54.1,0.24808,13511.9
54.2,0.24867,13541.1
54.3,0.24939,13593.9
54.4,0.24999,13623.2
54.5,0.25056,13630.7
54.6,0.25113,13664.6
54.7,0.25176,13707.2
54.8,0.25243,13738.8
54.9,0.25301,13771.4
55,0.25366,13794.4
55.1,0.25434,13819.9
55.2,0.25495,13843.1
55.3,0.2556,13887
55.4,0.2562,13916.9
55.5,0.25685,13946.5
55.6,0.25756,13993.9
55.7,0.25825,14024.3
55.8,0.25888,14037.4
55.9,0.25958,14054
56,0.26024,14099.3
56.1,0.26077,14133.5
56.2,0.26143,14174.8
56.3,0.26202,14210.5
56.4,0.26273,14238.2
56.5,0.26339,14253.6
56.6,0.26401,14282.4
56.7,0.26452,14311.1
56.8,0.26513,14336.3
56.9,0.26579,14364.9
57,0.26642,14410.1
57.1,0.26713,14442.2
57.2,0.26777,14461.7
57.3,0.26841,14491.2
57.4,0.26901,14540.3
57.5,0.26974,14569.8
57.6,0.27042,14603
57.7,0.27111,14625.1
57.8,0.27168,14640
57.9,0.27246,14658.9
58,0.27308,14701.7
58.1,0.27373,14745.8
58.2,0.27448,14761.8
58.3,0.27507,14812.7
58.4,0.27571,14849.1
58.5,0.27635,14866.2
58.6,0.27692,14876
58.7,0.27753,14903.3
58.8,0.27817,14945.9
58.9,0.27879,14977
59,0.27937,15024.6
59.1,0.27993,15052
59.2,0.28059,15071.1
59.3,0.28121,15104.2
59.4,0.28183,15138.2
59.5,0.28247,15165.6
59.6,0.28314,15184.7
59.7,0.28376,15220.3
59.8,0.28443,15253.1
59.9,0.28539,15268.5
60,0.2864,15290.4
60.1,0.28701,15324.4
60.2,0.28771,15371.9
60.3,0.28831,15404.1
60.4,0.28898,15443.3
60.5,0.28959,15463.7
60.6,0.29024,15470.1
60.7,0.29084,15481.4
60.8,0.29156,15514.9
60.9,0.29212,15558.1
61,0.2928,15583.7
61.1,0.29345,15623.5
61.2,0.29407,15672.4
61.3,0.29472,15692.2
61.4,0.29539,15711.9
61.5,0.29645,15728.9
61.6,0.29718,15759.9
61.7,0.29788,15779
61.8,0.29855,15816.3
61.9,0.29928,15862.5
62,0.29997,15882.6
62.1,0.30074,15889.9
62.2,0.30146,15931.9
62.3,0.30216,15968.1
62.4,0.3029,16003.4
62.5,0.30352,16024
62.6,0.30425,16052
62.7,0.30683,16034.9
62.8,0.30774,16061.2
62.9,0.30861,16081.9
63,0.30923,16096.9
63.1,0.31012,16130.5
63.2,0.31086,16167.5
63.3,0.31188,16187.6
63.304,0.32205,15960.6
63.306,0.33858,15601.3
63.308,0.36412,15066.2
63.31,0.39689,14407.4
,,
,,
,,
,,
,,
,,
,,
,,
,,
,,
,,
,,
,,
,,
,,
,,
,,
,,
,,
,,
,,
,,
,,
,,
,,
,,
,,
,,
,,
,,
,,
,,
,,
,,
,,
,,
,,
,,
,,
,,
,,
,,
,,
,,
,,
,,
,,
,,
,,
,,
,,
,,
,,
,,
,,
,,
,,
,,
,,
,,
,,
,,
,,
,,
,,
,,
,,
,,
,,
,,
,,
,,
,,
,,
,,
,,
,,
,,
,,
,,
,,
,,
,,
,,
,,
,,
,,
,,
,,
,,
,,
,,
,,
,,
,,