File: FractureLab/Ti 90deg 3.csv
Time (s),Displacement (mm) ,Load (N),Width (mm),Base (mm),Final crack length (mm)
0,-0.00076,-0.02752,25,9.24,8.21
0.1,-0.00074,-0.09449
0.2,-0.00076,0.52351
0.3,-0.00061,3.18274
0.4,-0.00047,6.38161
0.5,-0.00039,9.08029
0.6,-0.00029,12.32141
0.7,-0.00025,14.65166
0.8,-0.00019,17.67595
0.9,-0.00005,21.77358
1,0,24.18341
1.1,0.00007,28.85081
1.2,0.00017,35.46357
1.3,0.00027,48.53662
1.4,0.00037,56.81731
1.5,0.00044,62.82241
1.6,0.00056,68.7796
1.7,0.00068,73.42377
1.8,0.00077,76.75123
1.9,0.00088,81.41698
2,0.00098,90.75191
2.1,0.0011,103.997
2.2,0.00118,116.497
2.3,0.00131,125.99
2.4,0.00144,130.726
2.5,0.00156,137.797
2.6,0.0017,144.667
2.7,0.00178,152.66
2.8,0.00195,162.231
2.9,0.00207,169.559
3,0.00224,175.579
3.1,0.00232,185.383
3.2,0.00241,196.831
3.3,0.0026,207.356
3.4,0.00269,212.222
3.5,0.00288,214.822
3.6,0.0031,217.581
3.7,0.00323,223.38
3.8,0.00344,230.409
3.9,0.00355,240.787
4,0.00377,251.437
4.1,0.00404,257.934
4.2,0.00419,271.53
4.3,0.00443,283.371
4.4,0.00466,289.725
4.5,0.00488,300.82
4.6,0.00511,315.278
4.7,0.00533,325.787
4.8,0.00558,337.847
4.9,0.00585,356.754
5,0.00607,372.091
5.1,0.00631,379.482
5.2,0.00646,389.703
5.3,0.00678,402.473
5.4,0.00703,417.617
5.5,0.00731,428.251
5.6,0.00755,438.857
5.7,0.00784,450.064
5.8,0.0081,477.149
5.9,0.00839,496.884
6,0.00871,508.935
6.1,0.00902,527.835
6.2,0.00931,542.505
6.3,0.00963,552.429
6.4,0.00989,573.243
6.5,0.01015,586.41
6.6,0.0105,598.34
6.7,0.01083,608.547
6.8,0.01115,619.229
6.9,0.01148,630.416
7,0.01185,640.962
7.1,0.0122,652.496
7.2,0.01258,678.7196
7.3,0.01285,697.647
7.4,0.01324,713.077
7.5,0.01359,738.774
7.6,0.01396,758.131
7.7,0.01434,774.828
7.8,0.01473,800.577
7.9,0.01507,816.535
8,0.01544,824.601
8.1,0.01586,830.329
8.2,0.01622,844.06
8.3,0.01661,858.754
8.4,0.01698,876.028
8.5,0.01742,898.598
8.6,0.01792,920.099
8.7,0.01835,938.782
8.8,0.01872,950.462
8.9,0.01921,974.307
9,0.0196,997.33
9.1,0.02002,1009.82
9.2,0.02044,1032.31
9.3,0.02088,1047.99
9.4,0.02131,1060.11
9.5,0.02183,1075.09
9.6,0.0222,1102.06
9.7,0.02258,1113.91
9.8,0.02311,1133.34
9.9,0.0235,1158.23
10,0.02393,1176.42
10.1,0.02445,1209.69
10.2,0.02485,1224.43
10.3,0.02534,1235.37
10.4,0.02573,1246.74
10.5,0.02625,1262.24
10.6,0.0266,1274.49
10.7,0.0271,1304.13
10.8,0.02758,1328.81
10.9,0.02804,1353.87
11,0.02846,1370.08
11.1,0.02896,1390.01
11.2,0.02942,1414.7
11.3,0.0299,1427.19
11.4,0.03042,1440.17
11.5,0.03075,1454.08
11.6,0.03134,1476.11
11.7,0.03183,1492.63
11.8,0.03232,1519.04
11.9,0.0328,1533.25
12,0.03326,1558.98
12.1,0.03373,1575.65
12.2,0.03423,1603.22
12.3,0.0347,1624.22
12.4,0.03513,1645.56
12.5,0.03566,1656.64
12.6,0.03604,1662.12
12.7,0.03654,1680.1
12.8,0.03704,1710.09
12.9,0.03755,1728.2
13,0.03804,1759.61
13.1,0.03844,1786.4
13.2,0.03895,1804.85
13.3,0.03942,1830.63
13.4,0.03987,1846.87
13.5,0.0403,1855.41
13.6,0.04081,1872.95
13.7,0.04125,1888.771
13.8,0.04171,1905.29
13.9,0.04219,1936.09
14,0.04269,1947.41
14.1,0.04315,1970.177
14.2,0.04362,1991.91
14.3,0.04409,2021.76
14.4,0.04465,2042.41
14.5,0.04515,2065.72
14.6,0.04558,2076.854
14.7,0.04604,2093.51
14.8,0.04656,2115.22
14.9,0.04712,2140.4
15,0.04762,2160.61
15.1,0.04812,2189.03
15.2,0.04866,2203.77
15.3,0.04914,2227.92
15.4,0.04957,2244.37
15.5,0.05007,2258.9
15.6,0.05052,2268.96
15.7,0.05105,2294.78
15.8,0.05152,2319.89
15.9,0.05199,2346.57
16,0.05251,2372.74
16.1,0.05303,2403.54
16.2,0.05352,2418.55
16.3,0.05396,2452.53
16.4,0.05447,2468.02
16.5,0.05495,2479.42
16.6,0.05542,2488.54
16.7,0.05593,2501.15
16.8,0.05633,2528.31
16.9,0.05683,2550.68
17,0.05734,2573.38
17.1,0.05786,2606.22
17.2,0.05836,2637.21
17.3,0.05888,2658.5
17.4,0.05937,2683.79
17.5,0.05987,2696.13
17.6,0.06042,2714.17
17.7,0.06087,2734.93
17.8,0.0614,2759.86
17.9,0.0619,2773.27
18,0.0624,2796.25
18.1,0.06289,2809.8
18.2,0.06342,2842.93
18.3,0.06394,2865.11
18.4,0.06445,2885.49
18.5,0.06502,2905.87
18.6,0.06556,2929.06
18.7,0.06602,2959.91
18.8,0.06657,2983.18
18.9,0.06712,3019.13
19,0.06763,3036.21
19.1,0.06814,3064.12
19.2,0.06869,3077.36
19.3,0.06915,3088.02
19.4,0.06967,3096.88
19.5,0.07011,3114.84
19.6,0.07066,3139.06
19.7,0.07122,3174.31
19.8,0.07168,3200.39
19.9,0.07223,3231.31
20,0.07275,3258.79
20.1,0.07326,3286.6
20.2,0.0738,3313.12
20.3,0.07426,3323.98
20.4,0.0748,3339.48
20.5,0.07534,3358.56
20.6,0.07582,3375.57
20.7,0.07635,3399.26
20.8,0.0769,3420.26
20.9,0.07746,3461.86
21,0.07793,3482.14
21.1,0.07844,3501.4
21.2,0.07899,3523.51
21.3,0.07948,3539.08
21.4,0.08001,3567.23
21.5,0.08053,3604.38
21.6,0.08107,3624.4
21.7,0.08163,3645.55
21.8,0.08212,3663.32
21.9,0.0826,3682.45
22,0.08313,3699.77
22.1,0.08367,3715.54
22.2,0.08414,3741.3
22.3,0.08463,3766.06
22.4,0.08519,3796.89
22.5,0.08574,3832.83
22.6,0.08625,3858.36
22.7,0.08682,3890.68
22.8,0.08729,3915.24
22.9,0.08791,3926.45
23,0.0884,3933.55
23.1,0.08899,3949.29
23.2,0.08954,3973.87
23.3,0.09,4001.04
23.4,0.09063,4024.56
23.5,0.09122,4056.49
23.6,0.09175,4091.72
23.7,0.0923,4108.24
23.8,0.09279,4139.43
23.9,0.09332,4152.85
24,0.0939,4171.92
24.1,0.0944,4206.44
24.2,0.09493,4221.51
24.3,0.09551,4248.62
24.4,0.09604,4270.02
24.5,0.09657,4300.51
24.6,0.09714,4319.55
24.7,0.09765,4335.21
24.8,0.09818,4360.7
24.9,0.09868,4377.64
25,0.09919,4419.77
25.1,0.09972,4448.01
25.2,0.10024,4472.44
25.3,0.10079,4497.53
25.4,0.10128,4518.74
25.5,0.10183,4535.3
25.6,0.10241,4550
25.7,0.103,4574.68
25.8,0.10354,4605.59
25.9,0.10412,4628.71
26,0.1047,4662.9
26.1,0.10522,4689.45
26.2,0.10579,4718.73
26.3,0.10637,4747.24
26.4,0.10697,4759.17
26.5,0.10751,4770.19
26.6,0.10802,4793.65
26.7,0.10861,4823.38
26.8,0.10916,4848.92
26.9,0.10966,4876.23
27,0.11025,4904.67
27.1,0.11083,4929.28
27.2,0.1114,4949.68
27.3,0.112,4974.76
27.4,0.11248,4995.48
27.5,0.11305,5034.37
27.6,0.1136,5054.7
27.7,0.11408,5075.59
27.8,0.1147,5106.86
27.9,0.11523,5132.88
28,0.11578,5159.41
28.1,0.11632,5170.46
28.2,0.11692,5186.96
28.3,0.11741,5213.54
28.4,0.11798,5245.59
28.5,0.1186,5282.85
28.6,0.11922,5303.77
28.7,0.11981,5333.14
28.8,0.1204,5355.8
28.9,0.12095,5367.27
29,0.12147,5391.47
29.1,0.1221,5428.88
29.2,0.12268,5453.27
29.3,0.12317,5479.63
29.4,0.12371,5500.93
29.5,0.12432,5536.33
29.6,0.12492,5562.8
29.7,0.12553,5582.73
29.8,0.12611,5595.07
29.9,0.12661,5617.83
30,0.12719,5650.2
30.1,0.12778,5676.64
30.2,0.12836,5715.51
30.3,0.12888,5747.78
30.4,0.12947,5770.5
30.5,0.13007,5783.89
30.6,0.13065,5805.12
30.7,0.13118,5831.52
30.8,0.13183,5861.29
30.9,0.13235,5888.96
31,0.13301,5904.62
31.1,0.13359,5943.44
31.2,0.13425,5969.31
31.3,0.1349,5991.81
31.4,0.13543,6014.22
31.5,0.13601,6033.58
31.6,0.13659,6068.71
31.7,0.13714,6093.51
31.8,0.13768,6122.52
31.9,0.13828,6153.85
32,0.13881,6177.46
32.1,0.13935,6187.91
32.2,0.13995,6200.46
32.3,0.14051,6232.77
32.4,0.14112,6274.88
32.5,0.14166,6305.11
32.6,0.14221,6331.92
32.7,0.14284,6366.35
32.8,0.14347,6395.11
32.9,0.144,6408.33
33,0.14455,6422.28
33.1,0.14516,6438.24
33.2,0.14579,6472.35
33.3,0.14642,6495.82
33.4,0.14698,6522.36
33.5,0.14762,6572.03
33.6,0.14821,6595.12
33.7,0.14878,6608.67
33.8,0.14941,6630.06
33.9,0.15001,6662.32
34,0.15063,6696.85
34.1,0.15122,6719.72
34.2,0.15179,6737.04
34.3,0.15243,6767.59
34.4,0.153,6793.18
34.5,0.15364,6811.33
34.6,0.15425,6844.03
34.7,0.15483,6870.06
34.8,0.15546,6903.4
34.9,0.15607,6938.44
35,0.15661,6967.02
35.1,0.15723,6999.47
35.2,0.15783,7014.41
35.3,0.15843,7020.21
35.4,0.15901,7035.02
35.5,0.15957,7073.94
35.6,0.16022,7107.88
35.7,0.16077,7135.05
35.8,0.16141,7176.13
35.9,0.16206,7204.95
36,0.1628,7234.58
36.1,0.16335,7251.29
36.2,0.16394,7271.32
36.3,0.16459,7297.88
36.4,0.1652,7316.14
36.5,0.1658,7341.35
36.6,0.16641,7382.13
36.7,0.16707,7415.58
36.8,0.16764,7433.7
36.9,0.16826,7456.33
37,0.16887,7482.25
37.1,0.16948,7526.75
37.2,0.17014,7559.06
37.3,0.17075,7579.62
37.4,0.17137,7603.17
37.5,0.17197,7619.23
37.6,0.1726,7633.8
37.7,0.17313,7652.84
37.8,0.17372,7688.84
37.9,0.1743,7718.05
38,0.17499,7753.07
38.1,0.17557,7788.17
38.2,0.1762,7825.23
38.3,0.17684,7850.97
38.4,0.17745,7858.83
38.5,0.17817,7874.02
38.6,0.17881,7906.7
38.7,0.17947,7938
38.8,0.18009,7971.06
38.9,0.18074,8010.83
39,0.18132,8033.22
39.1,0.18192,8058.49
39.2,0.18264,8081.75
39.3,0.18319,8106.47
39.4,0.18383,8142.28
39.5,0.18449,8158.19
39.6,0.18509,8182.06
39.7,0.18567,8216.07
39.8,0.18635,8242.05
39.9,0.18694,8258.12
40,0.18764,8281.87
40.1,0.18824,8318.58
40.2,0.18885,8354.48
40.3,0.18953,8394.65
40.4,0.19011,8423.14
40.5,0.19077,8448.4
40.6,0.19142,8460.38
40.7,0.19211,8475.43
40.8,0.19281,8505.21
40.9,0.19346,8541.82
41,0.19407,8564.29
41.1,0.19467,8601.2
41.2,0.19537,8642.8
41.3,0.19604,8670.52
41.4,0.19668,8688.79
41.5,0.19732,8703.8
41.6,0.198,8740.34
41.7,0.19864,8766.15
41.8,0.19927,8794.48
41.9,0.19988,8830.07
42,0.20057,8855.06
42.1,0.20118,8870.22
42.2,0.20182,8896.56
42.3,0.20243,8925.36
42.4,0.20315,8961.77
42.5,0.2038,8989.82
42.6,0.20448,9011.14
42.7,0.20512,9049.42
42.8,0.20582,9076.36
42.9,0.20653,9094.42
43,0.20717,9115.42
43.1,0.20784,9152.73
43.2,0.20848,9186.03
43.3,0.20912,9218.12
43.4,0.2097,9249.58
43.5,0.21036,9275.58
43.6,0.21104,9290.66
43.7,0.21172,9304.01
43.8,0.21226,9335.92
43.9,0.21296,9374.53
44,0.21362,9404.44
44.1,0.21424,9425.41
44.2,0.21484,9463.46
44.3,0.21553,9490.68
44.4,0.2162,9512.54
44.5,0.21683,9530.34
44.6,0.21752,9560.64
44.7,0.21819,9593.44
44.8,0.21886,9621.78
44.9,0.21955,9666.74
45,0.22024,9695.53
45.1,0.22093,9706.45
45.2,0.22165,9727.03
45.3,0.22235,9757.58
45.4,0.22302,9791.05
45.5,0.22373,9819.26
45.6,0.22441,9842.36
45.7,0.22505,9881.34
45.8,0.22571,9903.1
45.9,0.2264,9922.91
46,0.22708,9958.52
46.1,0.22771,9988.86
46.2,0.22838,10018.1
46.3,0.22906,10050.1
46.4,0.22973,10087.3
46.5,0.23041,10104.2
46.6,0.23106,10117
46.7,0.23171,10133.5
46.8,0.23244,10176.8
46.9,0.23301,10212.7
47,0.2337,10245.2
47.1,0.23441,10279.1
47.2,0.23511,10311.1
47.3,0.23579,10330.4
47.4,0.23654,10348.8
47.5,0.23732,10376.2
47.6,0.23795,10403.3
47.7,0.2388,10421.5
47.8,0.23955,10446.7
47.9,0.24031,10495.1
48,0.24107,10523.5
48.1,0.24175,10536.9
48.2,0.24242,10559.9
48.3,0.24312,10597.7
48.4,0.24383,10630.5
48.5,0.24443,10652.8
48.6,0.24519,10681.8
48.7,0.24587,10705.2
48.8,0.24656,10725.7
48.9,0.24724,10744.4
49,0.24793,10789.6
49.1,0.2486,10822.4
49.2,0.24931,10849.2
49.3,0.25003,10887.8
49.4,0.25077,10924.5
49.5,0.25151,10943.7
49.6,0.25217,10949.3
49.7,0.25283,10965.9
49.8,0.25345,11003.6
49.9,0.25423,11034.9
50,0.25489,11068.9
50.1,0.25564,11114.7
50.2,0.25628,11135.4
50.3,0.25703,11164.2
50.4,0.2577,11187
50.5,0.25837,11219.3
50.6,0.25904,11242.4
50.7,0.25981,11262.3
50.8,0.26051,11293.1
50.9,0.26123,11328
51,0.26197,11354.9
51.1,0.26272,11368.8
51.2,0.26346,11403.5
51.3,0.2642,11442.4
51.4,0.26509,11476.9
51.5,0.26577,11509.3
51.6,0.26656,11537.1
51.7,0.26722,11547.7
51.8,0.26788,11560.9
51.9,0.26861,11590.1
52,0.26931,11638.4
52.1,0.27001,11662.4
52.2,0.27075,11695.5
52.3,0.27144,11739
52.4,0.27217,11767.9
52.5,0.27284,11785.4
52.6,0.27351,11796.5
52.7,0.27424,11818.7
52.8,0.275,11847
52.9,0.27576,11878.7
53,0.27646,11918.1
53.1,0.27723,11953.3
53.2,0.27798,11970.8
53.3,0.27879,12003.3
53.4,0.2795,12033.7
53.5,0.28023,12068.5
53.6,0.28095,12091.8
53.7,0.2817,12113.2
53.8,0.28254,12142.7
53.9,0.28328,12165.5
54,0.284,12183.5
54.1,0.28473,12209.6
54.2,0.2855,12235.5
54.3,0.28633,12277.9
54.4,0.28708,12318.7
54.5,0.28785,12353.1
54.6,0.2887,12376.9
54.7,0.28948,12387.4
54.8,0.29023,12400
54.9,0.29095,12429.6
55,0.29167,12471
55.1,0.29245,12498.9
55.2,0.29334,12524
55.3,0.29415,12567.8
55.4,0.29494,12589.5
55.5,0.29578,12616.2
55.6,0.29653,12631.7
55.7,0.29728,12655.4
55.8,0.29811,12686.1
55.9,0.29894,12714.3
56,0.29979,12751.8
56.1,0.30058,12783.8
56.2,0.3014,12793.4
56.3,0.30221,12814.4
56.4,0.30299,12847
56.5,0.30389,12883.9
56.6,0.30467,12916.5
56.7,0.30549,12937.4
56.8,0.30625,12965.7
56.9,0.30712,12993
57,0.30803,13010.1
57.1,0.30885,13039.7
57.2,0.30959,13063.6
57.3,0.31042,13093.3
57.4,0.31133,13127.2
57.5,0.31225,13172.7
57.6,0.31298,13196.6
57.7,0.31378,13213.8
57.8,0.31444,13223.1
57.9,0.31519,13248.5
58,0.31596,13292.7
58.1,0.31672,13318.1
58.2,0.31757,13348.4
58.3,0.31835,13372.4
58.4,0.31926,13398.1
58.5,0.3201,13420
58.6,0.32093,13444.8
58.7,0.32175,13467.9
58.8,0.32272,13493.2
58.9,0.32359,13520.2
59,0.32438,13544.4
59.1,0.32523,13591
59.2,0.32607,13622.9
59.3,0.32686,13633.8
59.4,0.3277,13648
59.5,0.32854,13686.1
59.6,0.32933,13718.6
59.7,0.33011,13740.5
59.8,0.33096,13769.9
59.9,0.33175,13792.7
60,0.33257,13818.9
60.1,0.33344,13834.3
60.2,0.33438,13855.3
60.3,0.33544,13888.6
60.4,0.33645,13914.6
60.5,0.33757,13930.8
60.6,0.33862,13953.2
60.7,0.33956,13993
60.8,0.3405,14022.8
60.9,0.34143,14037.1
61,0.34232,14046.4
61.1,0.34327,14058.8
61.2,0.34425,14084.7
61.3,0.3462,14086.4
61.4,0.34819,14098
61.5,0.3498,14118.8
61.6,0.3511,14138.3
61.7,0.3523,14157.8
61.8,0.35339,14197.3
61.9,0.3544,14220.6
62,0.3553,14241.2
62.1,0.35622,14256.5
62.2,0.35719,14272.6
62.3,0.35818,14297.4
62.4,0.35911,14319.3
62.5,0.36044,14331.3
62.6,0.36173,14343.9
62.692,0.36882,14208.2
62.698,0.3764,14018.25
62.702,0.38232,13876.4
62.706,0.38833,13735.3
62.71,0.39405,13601.9
62.716,0.40156,13425.6
62.722,0.4077,13284
62.73,0.41357,13149.8
62.748,0.4194,13022.4
62.848,0.42051,13058.7
62.948,0.42224,13076.7
63.048,0.42386,13104.3
63.148,0.4254,13126.9
63.248,0.42694,13162.1
63.348,0.42835,13191.3
63.448,0.42982,13203.5
63.548,0.43113,13219.2
63.648,0.43244,13228.2
63.748,0.43374,13249.9
63.848,0.43511,13293.2
63.948,0.43655,13318.6
64.048,0.43816,13343.6
64.148,0.43956,13364.9
64.248,0.44096,13384.1
64.348,0.44243,13408.3
64.448,0.44393,13419.5
64.548,0.44642,13415.1
64.648,0.44838,13420.3
64.748,0.45049,13421.4
64.848,0.45378,13399.4
64.948,0.45582,13403
65.048,0.45767,13413.5
65.148,0.46003,13409.7
65.248,0.4623,13402.5
65.348,0.46429,13407.3
65.374,0.46898,13272.6
65.388,0.47357,13138.9
65.414,0.47843,13012.4
65.514,0.4819,13002.7
65.614,0.48452,13000.5
65.714,0.48643,13005.5
65.814,0.48816,13016.2
65.914,0.48976,13039.4
66.014,0.49129,13055.8
66.114,0.49281,13077.1
66.214,0.49438,13101.1
66.314,0.49586,13120.1
66.414,0.49742,13146.9
66.514,0.49883,13179
66.614,0.50029,13198.4
66.714,0.50169,13213
66.814,0.50309,13220.6
66.914,0.5045,13231.8
67.014,0.50602,13250.9
67.114,0.50765,13282.5
67.214,0.50935,13297
67.314,0.511,13313.3
67.414,0.51291,13325.7
67.514,0.51496,13335
67.614,0.51664,13346.6
67.714,0.5183,13355.8
67.814,0.52009,13370.2
67.914,0.52206,13373.9
68.014,0.5239,13377.4
68.114,0.52566,13395
68.214,0.52725,13413.6
68.314,0.52867,13425.4
68.414,0.53012,13442.5
68.514,0.53155,13457.6
68.614,0.53302,13473.2
68.714,0.53458,13494.7
68.814,0.53606,13514.5
68.914,0.53779,13519.5
69.014,0.53963,13524.8
69.114,0.54134,13539.5
69.214,0.54316,13546.3
69.314,0.54479,13568.6
69.414,0.54649,13587.6
69.514,0.54816,13600.1
69.614,0.54994,13609.1
69.714,0.55178,13615.5
69.814,0.55402,13614.8
69.914,0.55926,13514.6
70.014,0.56433,13437.9
70.114,0.56817,13406.4
70.214,0.57142,13371.8
70.314,0.5742,13357
70.414,0.5771,13339.8
70.514,0.57961,13323.9
70.614,0.58211,13315.2
70.714,0.58644,13240.7
70.814,0.58999,13218.2
70.914,0.59273,13207.2
71.014,0.59486,13206.9
71.114,0.59682,13210.4
71.214,0.5987,13216.7
71.314,0.60049,13219.4
71.414,0.60267,13219.3
71.514,0.60549,13210.7
71.614,0.60873,13191.9
71.714,0.61233,13140.4
71.814,0.61599,13093.9
71.914,0.61883,13072.4
72.014,0.62125,13060.75
72.114,0.6238,13053.4
72.214,0.6261,13052.6
72.314,0.62825,13053.4
72.414,0.63026,13054.5
72.514,0.63278,13047
72.614,0.6349,13048.4
72.714,0.63694,13051.4
72.814,0.63906,13050.7
72.914,0.64147,13046.3
73.014,0.64345,13049.4
73.114,0.64604,13038.7
73.214,0.64937,13008.3
73.314,0.6539,12963
73.414,0.65918,12888
73.514,0.6636,12812.4
73.614,0.66736,12790.8
73.714,0.67159,12745.2
73.774,0.67734,12618.5
73.796,0.68266,12489.9
73.828,0.68917,12359.7
73.872,0.69482,12232.2
73.938,0.70193,12106.3
73.974,0.70821,11970.1
73.992,0.71373,11845
74.004,0.71913,11719.4
74.014,0.72465,11591
74.022,0.73031,11461.3
74.026,0.74237,11224.4
74.028,0.75528,10982.4
74.03,0.77202,10671.6