File: FractureLab/Ti 90deg 1.csv
Time (s),Displacement (mm) ,Load (N),Width (mm),Base (mm),Final crack length (mm)
0,-0.00115,-0.96053,25.0,9.24,9.8
0.1,-0.00112,-1.03878
0.2,-0.00113,-0.56857
0.3,-0.00108,-0.07856
0.4,-0.00108,3.73159
0.5,-0.00086,8.44519
0.6,-0.0008,12.08756
0.7,-0.0007,14.53738
0.8,-0.00055,17.53607
0.9,-0.00045,21.66768
1,-0.00038,24.81072
1.1,-0.00024,29.38487
1.2,-0.00003,33.80497
1.3,0.00009,38.09375
1.4,0.00022,43.89698
1.5,0.00034,56.0237
1.6,0.00046,65.98382
1.7,0.00063,74.1634
1.8,0.00075,80.01481
1.9,0.00087,85.93236
2,0.00104,91.35466
2.1,0.00122,102.766
2.2,0.00138,123.23
2.3,0.00152,137.103
2.4,0.00169,147.872
2.5,0.00182,156.095
2.6,0.00202,163.491
2.7,0.00216,174.176
2.8,0.00236,184.688
2.9,0.00252,195.184
3,0.00273,211.13
3.1,0.00294,222.184
3.2,0.00313,227.599
3.3,0.00336,233.425
3.4,0.00356,242.198
3.5,0.00381,252.449
3.6,0.00398,261.998
3.7,0.0042,274.28
3.8,0.00441,286.677
3.9,0.0047,296.382
4,0.00497,304.047
4.1,0.0052,320.903
4.2,0.00541,337.4603
4.3,0.00571,348.229
4.4,0.00597,361.065
4.5,0.00622,379.2
4.6,0.00653,389.623
4.7,0.0068,397.1395
4.8,0.00711,416.493
4.9,0.00742,434.508
5,0.00774,443.5582
5.1,0.00809,455.345
5.2,0.00839,466.126
5.3,0.00875,493.022
5.4,0.00917,512.843
5.5,0.00942,522.665
5.6,0.00983,548.519
5.7,0.01018,558.71
5.8,0.01056,573.353
5.9,0.01096,594.772
6,0.01136,603.3045
6.1,0.01172,616.005
6.2,0.01215,629.4967
6.3,0.01253,640.31
6.4,0.01298,651.0379
6.5,0.01345,661.717
6.6,0.01386,686.639
6.7,0.01426,705.891
6.8,0.01471,718.665
6.9,0.01517,744.986
7,0.0156,761.8468
7.1,0.01607,778.537
7.2,0.0165,799.684
7.3,0.01696,822.427
7.4,0.01738,832.982
7.5,0.01783,841.9115
7.6,0.01826,851.6
7.7,0.01877,869.07
7.8,0.01925,881.716
7.9,0.01973,899.56
8,0.02022,920.187
8.1,0.02075,943.1571
8.2,0.02127,959.565
8.3,0.0217,972
8.4,0.0222,999.8075
8.5,0.02268,1012.14
8.6,0.02316,1027.53
8.7,0.02369,1044.9
8.8,0.0242,1061.35
8.9,0.02469,1072.98
9,0.02529,1084.86
9.1,0.02574,1115.4
9.2,0.02625,1126.59
9.3,0.02679,1142.95
9.4,0.02729,1169.39
9.5,0.02779,1186.51
9.6,0.02829,1210.96
9.7,0.02882,1227.26
9.8,0.02934,1239.94
9.9,0.02978,1252.91
10,0.03037,1272.68
10.1,0.03089,1284.5
10.2,0.03142,1303.42
10.3,0.03194,1328.05
10.4,0.03247,1345.19
10.5,0.03306,1374.61
10.6,0.03358,1384.44
10.7,0.03413,1406.29
10.8,0.0347,1431.36
10.9,0.03533,1443.94
11,0.03582,1454.89
11.1,0.0363,1469.14
11.2,0.03689,1490.24
11.3,0.03743,1504.34
11.4,0.03801,1523.64
11.5,0.03858,1545.59
11.6,0.03917,1573.54
11.7,0.03971,1589.58
11.8,0.04019,1605.66
11.9,0.04077,1632.45
12,0.04136,1651.7
12.1,0.04192,1664.97
12.2,0.04247,1674.22
12.3,0.043,1689.83
12.4,0.04351,1716.41
12.5,0.04409,1734.19
12.6,0.04461,1751.68
12.7,0.04514,1787.05
12.8,0.04566,1801.77
12.9,0.04621,1824.23
13,0.04675,1848.51
13.1,0.0473,1860.59
13.2,0.04777,1871.99
13.3,0.04839,1889.81
13.4,0.04888,1904.69
13.5,0.04943,1922.43
13.6,0.05006,1947.13
13.7,0.05061,1958.07
13.8,0.05123,1986.29
13.9,0.05175,2006.71
14,0.05234,2029.59
14.1,0.05295,2050.3
14.2,0.05351,2068.62
14.3,0.05412,2084.35
14.4,0.05464,2100.22
14.5,0.05523,2121.67
14.6,0.05577,2143.32
14.7,0.05631,2158.02
14.8,0.05698,2186
14.9,0.05748,2208.22
15,0.05808,2222.25
15.1,0.05863,2248.08
15.2,0.05921,2261.46
15.3,0.0598,2275.46
15.4,0.06034,2285.66
15.5,0.06086,2316.8
15.6,0.06142,2335.34
15.7,0.062,2357.85
15.8,0.06251,2374.79
15.9,0.06308,2415.89
16,0.0636,2427.99
16.1,0.06422,2453.4
16.2,0.06479,2475.87
16.3,0.06532,2487.77
16.4,0.06597,2499.02
16.5,0.06652,2511.52
16.6,0.06715,2531.3
16.7,0.06771,2555.28
16.8,0.06829,2569.5
16.9,0.06895,2604.55
17,0.06946,2632.37
17.1,0.07002,2652.03
17.2,0.07057,2671.39
17.3,0.07118,2698.86
17.4,0.07181,2710.22
17.5,0.07235,2725.03
17.6,0.07297,2745.58
17.7,0.07355,2769.21
17.8,0.07413,2782.16
17.9,0.07472,2809.49
18,0.07534,2823.78
18.1,0.076,2851.5
18.2,0.07654,2869.25
18.3,0.0771,2890.47
18.4,0.07763,2906.57
18.5,0.07829,2929.81
18.6,0.0788,2949.68
18.7,0.0794,2977.11
18.8,0.08002,2996.72
18.9,0.08074,3037.26
19,0.0813,3049.87
19.1,0.08182,3075.54
19.2,0.08246,3089.11
19.3,0.08308,3101.2
19.4,0.08369,3112.08
19.5,0.08426,3130.99
19.6,0.08492,3150.98
19.7,0.08543,3181.06
19.8,0.086,3193.56
19.9,0.08656,3237.95
20,0.08716,3259.07
20.1,0.08777,3285.46
20.2,0.08838,3309.41
20.3,0.08889,3326.98
20.4,0.08953,3339.26
20.5,0.09007,3354.2
20.6,0.09071,3375.48
20.7,0.09136,3391.23
20.8,0.09202,3420.81
20.9,0.09262,3441.68
21,0.09321,3474.24
21.1,0.09381,3491.35
21.2,0.09447,3512.88
21.3,0.09507,3538.82
21.4,0.0957,3551.16
21.5,0.09622,3572.27
21.6,0.09694,3607.13
21.7,0.09763,3623.47
21.8,0.09815,3652.43
21.9,0.09877,3664.74
22,0.09942,3688.79
22.1,0.10006,3704.9
22.2,0.10069,3720.2
22.3,0.10129,3745.83
22.4,0.10192,3762.67
22.5,0.10248,3793.78
22.6,0.10309,3817.19
22.7,0.1037,3855.66
22.8,0.10428,3876.73
22.9,0.1049,3905.31
23,0.10551,3925.51
23.1,0.1061,3937.21
23.2,0.10669,3947.3
23.3,0.10729,3963.14
23.4,0.1079,3982.15
23.5,0.1085,4010.19
23.6,0.1092,4033.7
23.7,0.10983,4063.64
23.8,0.11046,4090.69
23.9,0.11113,4113.1
24,0.11169,4136.92
24.1,0.1123,4160.27
24.2,0.11292,4175.82
24.3,0.11359,4196.4
24.4,0.11424,4223.78
24.5,0.1148,4240.58
24.6,0.11539,4265.49
24.7,0.11602,4283.3
24.8,0.11668,4313.69
24.9,0.11732,4330.4
25,0.11793,4349.42
25.1,0.11854,4372.88
25.2,0.11917,4388.73
25.3,0.11978,4426.83
25.4,0.12044,4452.84
25.5,0.12108,4482.95
25.6,0.12169,4499.95
25.7,0.12229,4526.96
25.8,0.12291,4540.43
25.9,0.1235,4554.17
26,0.12425,4576.5
26.1,0.12484,4595.6
26.2,0.12543,4623.56
26.3,0.1261,4646.75
26.4,0.12677,4681.02
26.5,0.12739,4705.16
26.6,0.12794,4731.83
26.7,0.12853,4759.41
26.8,0.12922,4772.01
26.9,0.12993,4784.4
27,0.13058,4805.1
27.1,0.1312,4833.27
27.2,0.1318,4854.01
27.3,0.13243,4887.78
27.4,0.13306,4903.82
27.5,0.13374,4936.73
27.6,0.13442,4957.61
27.7,0.13501,4977.15
27.8,0.13566,4999.12
27.9,0.13621,5020.36
28,0.13692,5054.92
28.1,0.13755,5074.16
28.2,0.13818,5095.41
28.3,0.13881,5125.13
28.4,0.1395,5148.25
28.5,0.14009,5170.08
28.6,0.14074,5180.32
28.7,0.14132,5201.07
28.8,0.14204,5222.98
28.9,0.14272,5251.09
29,0.14328,5283.33
29.1,0.14395,5307.87
29.2,0.14465,5333.26
29.3,0.14529,5361.12
29.4,0.14587,5374.97
29.5,0.14645,5388.52
29.6,0.14717,5413.97
29.7,0.14787,5448.19
29.8,0.14843,5464.38
29.9,0.14908,5499.9
30,0.14978,5518.49
30.1,0.15037,5549.03
30.2,0.15106,5573.46
30.3,0.1517,5592.08
30.4,0.15242,5606.86
30.5,0.15304,5621.23
30.6,0.15365,5655.68
30.7,0.15436,5673.98
30.8,0.15509,5713.06
30.9,0.1558,5740.83
31,0.15642,5769.18
31.1,0.15708,5790.67
31.2,0.15776,5800.73
31.3,0.15836,5825.96
31.4,0.15899,5850.98
31.5,0.15966,5876.3
31.6,0.16034,5904.99
31.7,0.16095,5918.74
31.8,0.16161,5954.6
31.9,0.16227,5976.64
32,0.16294,6000.8
32.1,0.1636,6017.24
32.2,0.16427,6039.49
32.3,0.16496,6074.21
32.4,0.16566,6092.64
32.5,0.16635,6130.05
32.6,0.16695,6148.08
32.7,0.16762,6175.39
32.8,0.16837,6194.64
32.9,0.16902,6206.1
33,0.16978,6229.01
33.1,0.17045,6264.73
33.2,0.17117,6292.18
33.3,0.17178,6324.61
33.4,0.17249,6348.61
33.5,0.17321,6379.64
33.6,0.17391,6405.44
33.7,0.17453,6420.98
33.8,0.17516,6436.25
33.9,0.17586,6449.29
34,0.17653,6480.74
34.1,0.17716,6498.14
34.2,0.17776,6525.74
34.3,0.17845,6562.79
34.4,0.17909,6592.61
34.5,0.17978,6613.95
34.6,0.18045,6633.61
34.7,0.18117,6651.18
34.8,0.18189,6686.97
34.9,0.18254,6709.07
35,0.18328,6739.67
35.1,0.18402,6754.41
35.2,0.18477,6785.27
35.3,0.18546,6804.44
35.4,0.18614,6822.01
35.5,0.18679,6853.59
35.6,0.18748,6877.98
35.7,0.18819,6909.88
35.8,0.18882,6937.71
35.9,0.18955,6967.56
36,0.19021,6998.48
36.1,0.19088,7018.05
36.2,0.19153,7030.29
36.3,0.19224,7040.24
36.4,0.193,7058.94
36.5,0.19364,7095.78
36.6,0.19441,7127.31
36.7,0.19506,7157.47
36.8,0.19581,7192.56
36.9,0.19649,7217.5
37,0.19714,7241.16
37.1,0.1979,7261.56
37.2,0.19862,7281.9
37.3,0.19941,7308.03
37.4,0.20004,7321.17
37.5,0.20064,7350.46
37.6,0.20141,7379.36
37.7,0.20212,7417.11
37.8,0.20285,7436.59
37.9,0.20355,7459.26
38,0.2043,7483.16
38.1,0.205,7520.17
38.2,0.20564,7546.93
38.3,0.2063,7576.83
38.4,0.20708,7597
38.5,0.20776,7617.26
38.6,0.20847,7633.84
38.7,0.20918,7647.6
38.8,0.20999,7676.77
38.9,0.21069,7704.09
39,0.21136,7729.22
39.1,0.21214,7767.92
39.2,0.21287,7796.71
39.3,0.21359,7834.65
39.4,0.21429,7856.78
39.5,0.21504,7869.82
39.6,0.21577,7883.77
39.7,0.21643,7906.25
39.8,0.21708,7930.41
39.9,0.21778,7966.78
40,0.21845,7993.02
40.1,0.21915,8027.53
40.2,0.21985,8049.39
40.3,0.22053,8076.05
40.4,0.22128,8098.08
40.5,0.22197,8120.79
40.6,0.22267,8152.83
40.7,0.2234,8170.23
40.8,0.22409,8192.66
40.9,0.22487,8223.92
41,0.22561,8248.98
41.1,0.22638,8266.36
41.2,0.22714,8288.21
41.3,0.22786,8311.71
41.4,0.22861,8342.59
41.5,0.22939,8388.06
41.6,0.23014,8414.53
41.7,0.23084,8444.14
41.8,0.23154,8462.18
41.9,0.23225,8474.3
42,0.23304,8491.56
42.1,0.23371,8517.11
42.2,0.23436,8549.92
42.3,0.23512,8576.34
42.4,0.2359,8611.02
42.5,0.23659,8644.58
42.6,0.23731,8669.45
42.7,0.23803,8697.36
42.8,0.23873,8710.48
42.9,0.23944,8726.67
43,0.24019,8760.22
43.1,0.24094,8787.19
43.2,0.2418,8815.5
43.3,0.24244,8846.56
43.4,0.24312,8868.28
43.5,0.24388,8885.34
43.6,0.24464,8910.73
43.7,0.24534,8935.93
43.8,0.24615,8970.45
43.9,0.24698,9000.2
44,0.24767,9019.83
44.1,0.24834,9047.77
44.2,0.24914,9076.06
44.3,0.24984,9098.86
44.4,0.25064,9116.54
44.5,0.25138,9136.62
44.6,0.2521,9171.76
44.7,0.25284,9204.89
44.8,0.25359,9232.22
44.9,0.25426,9263.23
45,0.25511,9289.45
45.1,0.2559,9303.41
45.2,0.25661,9316.22
45.3,0.25732,9343.16
45.4,0.25807,9379.55
45.5,0.25877,9403.74
45.6,0.25952,9430.02
45.7,0.26023,9458.94
45.8,0.26099,9488.7
45.9,0.26172,9512.54
46,0.26249,9529.82
46.1,0.26313,9546.81
46.2,0.26394,9582.78
46.3,0.26467,9608.12
46.4,0.26547,9635.17
46.5,0.26619,9677.48
46.6,0.26698,9702.52
46.7,0.26776,9717.13
46.8,0.26857,9732.81
46.9,0.26935,9758.95
47,0.27008,9792.8
47.1,0.27094,9821.53
47.2,0.2717,9843.22
47.3,0.27243,9866.81
47.4,0.27319,9900.53
47.5,0.27399,9918.99
47.6,0.27473,9940.82
47.7,0.27545,9969.31
47.8,0.27617,9998.71
47.9,0.277,10028.7
48,0.27771,10059.3
48.1,0.27849,10094.1
48.2,0.27919,10111.3
48.3,0.27994,10126.8
48.4,0.28067,10137.3
48.5,0.2815,10158.8
48.6,0.28222,10203.1
48.7,0.28304,10233.9
48.8,0.28386,10264.7
48.9,0.28463,10294.3
49,0.28537,10319.4
49.1,0.28619,10342.3
49.2,0.28695,10359.8
49.3,0.28781,10380.4
49.4,0.28853,10409.3
49.5,0.28934,10431.6
49.6,0.29017,10456.3
49.7,0.29096,10500.2
49.8,0.29169,10527.7
49.9,0.29245,10544.7
50,0.29327,10561.4
50.1,0.29403,10583.4
50.2,0.2948,10623
50.3,0.29557,10647.9
50.4,0.29638,10672.8
50.5,0.29712,10694.4
50.6,0.2979,10716.5
50.7,0.29868,10735.3
50.8,0.29961,10751.9
50.9,0.30047,10784.75
51,0.30132,10824.9
51.1,0.30215,10848.1
51.2,0.30305,10880.5
51.3,0.3039,10910.3
51.4,0.30468,10936
51.5,0.30556,10955.1
51.6,0.30638,10962.4
51.7,0.30724,10975.6
51.8,0.30807,11003.2
51.9,0.30891,11032.6
52,0.30967,11064.1
52.1,0.31045,11095.4
52.2,0.31132,11131.6
52.3,0.31223,11154.9
52.4,0.31308,11179.7
52.5,0.31392,11200.5
52.6,0.31472,11229.1
52.7,0.31559,11249.5
52.8,0.3164,11269.3
52.9,0.31718,11287.1
53,0.31795,11321.2
53.1,0.31882,11351.5
53.2,0.31962,11369.5
53.3,0.32039,11391.2
53.4,0.32121,11419.6
53.5,0.3221,11454.7
53.6,0.32298,11483.9
53.7,0.32384,11510.1
53.8,0.32473,11540.6
53.9,0.32566,11556.2
54,0.32654,11565.8
54.1,0.32739,11581.7
54.2,0.32831,11608.3
54.3,0.32925,11647.3
54.4,0.33009,11672.5
54.5,0.331,11694
54.6,0.33192,11725.9
54.7,0.33286,11760.4
54.8,0.33364,11781.2
54.9,0.3345,11797.2
55,0.33538,11808.3
55.1,0.33627,11827.3
55.2,0.33708,11851
55.3,0.33791,11875.2
55.4,0.33874,11903.3
55.5,0.33965,11946.3
55.6,0.34051,11966.3
55.7,0.34133,11981.5
55.8,0.34222,12013.7
55.9,0.34308,12038.7
56,0.34386,12071
56.1,0.34471,12095.2
56.2,0.3456,12114.4
56.3,0.34659,12137.4
56.4,0.34764,12155.2
56.5,0.34858,12174.6
56.6,0.34964,12191.1
56.7,0.35097,12201.2
56.8,0.35235,12215.7
56.9,0.35632,12171.6
57,0.35775,12185
57.1,0.35928,12197.1
57.2,0.36074,12210.7
57.3,0.36252,12216.8
57.4,0.36366,12230.9
57.5,0.36477,12260.4
57.6,0.36589,12283.6
57.638,0.37225,12146.3
57.644,0.3779,12007.5
57.65,0.38365,11865.3
57.656,0.38881,11736.8
57.664,0.39436,11600
57.676,0.39962,11474.3
57.776,0.40254,11465.7
57.876,0.40435,11493
57.976,0.40576,11512.8
58.076,0.4071,11542.2
58.176,0.40841,11557.5
58.276,0.4097,11568.4
58.376,0.411,11588.7
58.476,0.41227,11624.8
58.576,0.41364,11654.1
58.676,0.41498,11679
58.776,0.41625,11713
58.876,0.41755,11747.3
58.976,0.41882,11772.8
59.076,0.4202,11793.8
59.176,0.42156,11801.2
59.276,0.42302,11813.9
59.376,0.42442,11834.3
59.476,0.4258,11854.5
59.576,0.42706,11881.9
59.676,0.42837,11907.4
59.776,0.42971,11942.5
59.876,0.43113,11961.9
59.976,0.4326,11972.8
60.076,0.43401,11981.5
60.176,0.43544,12000.4
60.276,0.43673,12024.8
60.376,0.4381,12053.6
60.476,0.43935,12074.8
60.576,0.44064,12097.9
60.676,0.44233,12108.7
60.776,0.44406,12115.5
60.876,0.44564,12125.6
60.976,0.44726,12145.6
61.076,0.44892,12157.4
61.176,0.45031,12171.9
61.276,0.45156,12182.7
61.376,0.45287,12195.7
61.476,0.45423,12215.4
61.576,0.45552,12229.9
61.676,0.45689,12245.2
61.776,0.45958,12231.2
61.876,0.46308,12198.5
61.904,0.46866,12058.2
61.914,0.47333,11922.3
61.926,0.47795,11786
61.952,0.48279,11658.1
62.052,0.48544,11657
62.152,0.48813,11655.6
62.252,0.49008,11672.2
62.352,0.49189,11687
62.452,0.49368,11710.2
62.552,0.4956,11729
62.652,0.49766,11742.6
62.752,0.50039,11732.4
62.852,0.50318,11714.9
62.952,0.50536,11725.3
63.052,0.50728,11744.5
63.152,0.50923,11758.3
63.252,0.51175,11753.3
63.352,0.51414,11750.5
63.452,0.51642,11750.2
63.552,0.51845,11760.6
63.652,0.52035,11767.6
63.752,0.52217,11779.6
63.852,0.52396,11790.8
63.952,0.52592,11795.5
64.052,0.52942,11745.1
64.07,0.53363,11611.3
64.092,0.53836,11484.1
64.192,0.54436,11397.7
64.292,0.54799,11374.4
64.392,0.5503,11374.6
64.492,0.55317,11367.4
64.592,0.55598,11363.3
64.692,0.55873,11360
64.792,0.56099,11362.5
64.892,0.56317,11363.7
64.992,0.56565,11362.4
65.092,0.56875,11346.8
65.192,0.5719,11318.4
65.262,0.57867,11190.7
65.288,0.58429,11060.1
65.388,0.59059,10968.7
65.488,0.59422,10957.6
65.588,0.59681,10954.4
65.688,0.59889,10955.5
65.788,0.60104,10957.1
65.888,0.60302,10959
65.988,0.60483,10960.4
66.088,0.60657,10964.8
66.188,0.60843,10969.4
66.288,0.61032,10975
66.388,0.61211,10981.5
66.488,0.61396,10993
66.588,0.61578,11014.4
66.688,0.61753,11025.1
66.788,0.61935,11033.5
66.888,0.6215,11034.9
66.988,0.62373,11032.9
67.088,0.62626,11025
67.188,0.62896,11007.6
67.288,0.63125,11001.125
67.388,0.63337,11006.8
67.488,0.63535,11014.4
67.588,0.63739,11016.5
67.688,0.64014,10985.9
67.788,0.64298,10973.2
67.888,0.64564,10969.2
67.988,0.64886,10957.4
68.088,0.65229,10933.8
68.188,0.65521,10916.2
68.288,0.65752,10912.7
68.388,0.65993,10904.9
68.488,0.66305,10877.7
68.588,0.66627,10849.8
68.688,0.66926,10831.5
68.788,0.673,10779.7
68.888,0.67679,10743.8
68.988,0.68291,10673.1
69.04,0.6895,10548
69.098,0.69592,10420
69.136,0.70301,10284.9
69.158,0.70913,10157.2
69.19,0.71571,10027.1
69.228,0.72231,9900.18
69.262,0.72874,9770.07
69.294,0.73534,9639.95
69.32,0.74175,9509.84
69.34,0.74862,9363.6
69.344,0.75476,9229
69.348,0.76327,9044.5
69.352,0.77299,8832.92
69.356,0.78314,8612.65
69.36,0.7931,8396.64
69.364,0.80247,8194.29
69.368,0.811,8011.73
69.372,0.81847,7852.2
69.376,0.82487,7716.18
69.382,0.83253,7553.4
69.39,0.83981,7400.91
69.402,0.84652,7270.43
69.43,0.85459,7144.78
69.484,0.86424,7019.08
69.52,0.87247,6891.43
69.538,0.88012,6764.87
69.55,0.88913,6610.33
69.556,0.90013,6416.85
69.56,0.90923,6257.42
69.564,0.91896,6088.87
69.568,0.92871,5921.74
69.572,0.93806,5763.15
69.576,0.94677,5617.28
69.58,0.95465,5486.32
69.586,0.96487,5319.25
69.592,0.97308,5186.7
69.6,0.9813,5058.42