File: FractureLab/Ti 90deg 2.csv
Time (s),Displacement (mm) ,Load (N),Width (mm),Base (mm),Final crack length (mm)
0,-0.00023,0.8829,25.0,9.24,7.67
0.1,-0.00024,0.58435
0.2,-0.00024,0.76322
0.3,-0.00017,1.52057
0.4,-0.00008,4.53683
0.5,0.00015,10.30486
0.6,0.00032,17.06333
0.7,0.00045,24.08418
0.8,0.00059,28.71858
0.9,0.00073,43.70475
1,0.00091,61.32024
1.1,0.00108,71.13612
1.2,0.00122,78.02995
1.3,0.0014,89.51708
1.4,0.00155,112.221
1.5,0.00168,128.4
1.6,0.00184,139.194
1.7,0.00204,149.317
1.8,0.0022,160.0715
1.9,0.00239,173.384
2,0.00253,183.739
2.1,0.0027,202.21
2.2,0.00291,212.784
2.3,0.00298,217.745
2.4,0.00325,223.867
2.5,0.00343,233.14
2.6,0.00361,243.762
2.7,0.00372,254.419
2.8,0.00394,266.112
2.9,0.00412,278.697
3,0.00433,288.12
3.1,0.00456,296.308
3.2,0.00474,317.82
3.3,0.00495,329.304
3.4,0.00516,342.699
3.5,0.0054,357.814
3.6,0.00561,376.291
3.7,0.00583,383.6611
3.8,0.00605,395.207
3.9,0.00628,416.712
4,0.00653,428.953
4.1,0.00673,439.68
4.2,0.00699,449.401
4.3,0.00719,471.105
4.4,0.00755,495.411
4.5,0.00777,509.206
4.6,0.00805,533.646
4.7,0.0083,546.28
4.8,0.00861,558.63
4.9,0.00887,582.392
5,0.00917,592.458
5.1,0.00942,604.976
5.2,0.00967,618.104
5.3,0.01002,631.011
5.4,0.01031,642.198
5.5,0.01062,651.595
5.6,0.01086,678.558
5.7,0.01117,698.66
5.8,0.01147,712.606
5.9,0.01177,741.127
6,0.0121,760.261
6.1,0.01246,776.354
6.2,0.0128,807.105
6.3,0.01309,820.706
6.4,0.01348,829.332
6.5,0.0139,838.884
6.6,0.01421,857.292
6.7,0.01462,871.167
6.8,0.01493,892.801
6.9,0.01532,912.877
7,0.01566,937.646
7.1,0.01604,951.054
7.2,0.0164,973.036
7.3,0.01674,1000.54
7.4,0.01711,1012.35
7.5,0.01746,1033.37
7.6,0.01784,1050.81
7.7,0.01823,1064.35
7.8,0.01858,1081.99
7.9,0.01893,1110.04
8,0.01932,1119.81
8.1,0.01971,1148.07
8.2,0.02007,1167.55
8.3,0.02045,1190.07
8.4,0.02083,1214.93
8.5,0.02121,1229.26
8.6,0.02159,1242.95
8.7,0.02198,1262.01
8.8,0.02235,1275.42
8.9,0.02272,1301.33
9,0.02314,1327.66
9.1,0.0235,1347.82
9.2,0.02396,1370.64
9.3,0.02436,1391.58
9.4,0.02477,1419.5
9.5,0.02516,1430.47
9.6,0.0256,1444.57
9.7,0.02593,1461.19
9.8,0.02637,1482.16
9.9,0.02671,1498.43
10,0.0272,1521.88
10.1,0.02765,1543.66
10.2,0.02803,1571.61
10.3,0.02845,1588.76
10.4,0.02893,1618.76
10.5,0.02935,1638.84
10.6,0.02981,1654.47
10.7,0.03023,1663.1
10.8,0.03061,1680
10.9,0.03107,1708.11
11,0.0315,1727.31
11.1,0.03189,1753.44
11.2,0.03231,1786.09
11.3,0.03279,1800.89
11.4,0.03321,1833.92
11.5,0.03361,1847.6
11.6,0.03406,1860.46
11.7,0.0345,1878.81
11.8,0.03493,1894.73
11.9,0.03538,1916.12
12,0.03581,1941.1
12.1,0.03626,1958.27
12.2,0.03659,1980.9
12.3,0.03707,2007.27
12.4,0.03747,2031.85
12.5,0.03794,2054.2
12.6,0.0383,2071.8
12.7,0.03872,2086.98
12.8,0.03919,2110.9
12.9,0.03958,2134.96
13,0.04001,2150.44
13.1,0.04042,2181.73
13.2,0.04091,2201.84
13.3,0.04132,2223.64
13.4,0.04173,2243.44
13.5,0.04219,2259.36
13.6,0.04262,2270.3
13.7,0.04309,2293.31
13.8,0.0435,2318.76
13.9,0.04389,2345.76
14,0.04437,2363.4
14.1,0.04481,2406.49
14.2,0.04524,2419.23
14.3,0.0457,2449.72
14.4,0.0461,2468.67
14.5,0.04656,2481.05
14.6,0.04697,2493.77
14.7,0.04743,2507.99
14.8,0.04794,2539.3
14.9,0.04832,2555.76
15,0.04879,2584.3
15.1,0.04921,2619.18
15.2,0.04964,2643.19
15.3,0.05008,2663.25
15.4,0.05049,2691.8
15.5,0.05098,2702.35
15.6,0.0514,2723.2
15.7,0.05183,2742.47
15.8,0.05229,2766.13
15.9,0.05273,2782.45
16,0.05323,2807.96
16.1,0.0537,2827.79
16.2,0.05416,2856.85
16.3,0.05464,2879.521
16.4,0.05514,2898.14
16.5,0.05559,2923.72
16.6,0.05607,2951.77
16.7,0.05654,2974.8
16.8,0.05703,3005.47
16.9,0.05753,3033.37
17,0.05797,3054.36
17.1,0.05842,3073.37
17.2,0.05888,3087.01
17.3,0.05938,3099.65
17.4,0.05982,3118.23
17.5,0.06029,3139.79
17.6,0.06078,3173.64
17.7,0.06121,3197.49
17.8,0.06165,3234.75
17.9,0.06214,3258.88
18,0.06258,3285.35
18.1,0.06306,3314.44
18.2,0.06349,3324.7
18.3,0.06394,3341.64
18.4,0.0644,3361.43
18.5,0.06478,3379.63
18.6,0.06524,3407.24
18.7,0.06567,3427
18.8,0.06609,3466.31
18.9,0.0666,3484.59
19,0.06713,3507.36
19.1,0.06753,3532.28
19.2,0.06802,3551.35
19.3,0.06845,3584.74
19.4,0.06893,3607.77
19.5,0.06939,3633.73
19.6,0.06981,3651.12
19.7,0.07033,3673.45
19.8,0.07076,3690.5
19.9,0.07124,3706.04
20,0.0718,3730.67
20.1,0.07226,3751.33
20.2,0.0728,3784.41
20.3,0.07325,3812.61
20.4,0.07379,3848.82
20.5,0.07424,3873.89
20.6,0.07476,3904.02
20.7,0.07524,3922.88
20.8,0.07578,3932.16
20.9,0.07619,3945.56
21,0.07661,3961.1
21.1,0.07711,3993.97
21.2,0.07761,4018.6
21.3,0.07808,4050.56
21.4,0.07856,4077.67
21.5,0.07898,4103.02
21.6,0.07947,4132.25
21.7,0.07996,4151.47
21.8,0.08035,4169.96
21.9,0.0809,4201.24
22,0.08138,4218.41
22.1,0.08187,4249.99
22.2,0.08236,4265.17
22.3,0.08279,4298.63
22.4,0.08331,4318.62
22.5,0.08378,4335
22.6,0.08419,4359.91
22.7,0.08467,4377.86
22.8,0.08522,4419.87
22.9,0.08572,4448.17
23,0.08619,4473.7
23.1,0.08676,4498.05
23.2,0.0872,4521.15
23.3,0.08773,4538.99
23.4,0.08821,4556.65
23.5,0.08878,4580.12
23.6,0.08925,4610.01
23.7,0.08968,4631.75
23.8,0.09018,4669.02
23.9,0.09069,4693.7
24,0.09116,4724.34
24.1,0.09173,4754.17
24.2,0.09215,4763.89
24.3,0.09267,4777.31
24.4,0.09318,4804.58
24.5,0.09364,4828.47
24.6,0.09417,4861.29
24.7,0.09468,4883.49
24.8,0.0952,4917.89
24.9,0.0957,4941.03
25,0.09615,4961.12
25.1,0.09673,4984.8
25.2,0.09715,5007.46
25.3,0.09773,5044.96
25.4,0.09819,5065.71
25.5,0.09869,5088.22
25.6,0.09922,5123.86
25.7,0.09971,5147.76
25.8,0.10022,5164.77
25.9,0.10076,5181.92
26,0.10131,5205.22
26.1,0.10185,5235.7
26.2,0.10237,5269.63
26.3,0.10287,5297.64
26.4,0.10337,5322.29
26.5,0.10384,5351.66
26.6,0.10436,5367.97
26.7,0.10485,5385.34
26.8,0.10536,5416.77
26.9,0.10583,5446.64
27,0.10632,5470.7
27.1,0.10686,5501
27.2,0.10736,5530.7
27.3,0.10784,5559.74
27.4,0.10834,5581.66
27.5,0.10889,5596.23
27.6,0.10942,5616.93
27.7,0.1099,5650.51
27.8,0.11041,5671.97
27.9,0.11086,5711.71
28,0.1114,5743.64
28.1,0.11201,5770.67
28.2,0.11256,5786.69
28.3,0.11306,5806.59
28.4,0.11354,5831.85
28.5,0.1141,5862.48
28.6,0.11466,5892.29
28.7,0.11519,5909.13
28.8,0.11581,5953.41
28.9,0.11635,5973.59
29,0.11685,5995.17
29.1,0.1174,6016.89
29.2,0.11789,6041.82
29.3,0.11841,6071.61
29.4,0.1189,6101.72
29.5,0.11939,6129.58
29.6,0.12001,6160.58
29.7,0.12047,6181.56
29.8,0.12091,6192.94
29.9,0.12147,6213.13
30,0.12203,6252.26
30.1,0.12252,6282.7
30.2,0.12304,6320.41
30.3,0.12358,6346.73
30.4,0.12415,6378.38
30.5,0.12466,6403.91
30.6,0.12511,6416.47
30.7,0.12562,6434.85
30.8,0.12622,6462.34
30.9,0.12678,6484.31
31,0.12725,6514.87
31.1,0.12774,6555.06
31.2,0.12828,6585.45
31.3,0.12876,6606.43
31.4,0.12934,6627.69
31.5,0.12992,6650.63
31.6,0.1305,6690.91
31.7,0.13105,6715.15
31.8,0.13161,6736.55
31.9,0.13211,6764.08
32,0.13271,6790.45
32.1,0.13326,6809.33
32.2,0.13377,6842.4
32.3,0.13435,6868.63
32.4,0.13487,6902.24
32.5,0.13541,6937.31
32.6,0.13598,6965.8
32.7,0.13648,6999.4
32.8,0.13703,7016.66
32.9,0.13751,7025
33,0.13807,7040.31
33.1,0.13859,7079.21
33.2,0.13921,7114.39
33.3,0.13969,7143.84
33.4,0.1402,7181.78
33.5,0.14082,7210.05
33.6,0.14144,7240.9
33.7,0.14195,7258.24
33.8,0.1424,7279
33.9,0.14296,7304.29
34,0.14359,7327.87
34.1,0.14413,7353.87
34.2,0.1447,7398.6
34.3,0.14525,7423.46
34.4,0.14583,7445.74
34.5,0.14638,7470.82
34.6,0.14684,7510.21
34.7,0.14746,7544.64
34.8,0.14804,7572.78
34.9,0.14857,7599.05
35,0.14908,7614.72
35.1,0.14965,7631.42
35.2,0.15017,7649.78
35.3,0.15073,7682.88
35.4,0.15126,7717.61
35.5,0.15181,7746.2
35.6,0.15236,7783.18
35.7,0.15289,7822.98
35.8,0.15343,7849.82
35.9,0.15398,7860.47
36,0.15456,7876
36.1,0.15511,7906.85
36.2,0.15572,7937.88
36.3,0.15628,7974.06
36.4,0.15686,8014.68
36.5,0.15747,8038.26
36.6,0.15802,8065.94
36.7,0.1586,8088.59
36.8,0.15921,8116.94
36.9,0.15979,8147.06
37,0.16034,8170.82
37.1,0.16084,8193.33
37.2,0.16138,8226.56
37.3,0.16195,8253.55
37.4,0.16253,8268.61
37.5,0.16312,8298.36
37.6,0.16366,8334.84
37.7,0.16427,8380.25
37.8,0.16482,8405.82
37.9,0.16539,8437.67
38,0.16599,8458.93
38.1,0.16652,8471.32
38.2,0.16702,8495.12
38.3,0.16764,8533.64
38.4,0.16821,8562.69
38.5,0.16883,8598.37
38.6,0.16937,8636.82
38.7,0.16994,8666.15
38.8,0.17055,8690.04
38.9,0.17117,8706.32
39,0.17178,8740.12
39.1,0.17237,8766.36
39.2,0.17296,8798.32
39.3,0.17362,8834.81
39.4,0.17415,8859.09
39.5,0.17477,8876.64
39.6,0.17538,8907.63
39.7,0.1759,8936.57
39.8,0.17651,8972.04
39.9,0.17705,9000.22
40,0.17761,9025.12
40.1,0.17821,9062.81
40.2,0.17877,9086.58
40.3,0.17934,9105.29
40.4,0.18001,9131.57
40.5,0.18057,9165.64
40.6,0.1811,9208.35
40.7,0.18169,9237.28
40.8,0.18232,9270.98
40.9,0.18284,9292.3
41,0.18344,9302.88
41.1,0.18403,9331.37
41.2,0.18463,9372.9
41.3,0.18522,9400.85
41.4,0.18575,9425.54
41.5,0.18638,9464.75
41.6,0.187,9494.64
41.7,0.18766,9515.67
41.8,0.18824,9534.87
41.9,0.1888,9570.64
42,0.18947,9600.2
42.1,0.19003,9628.34
42.2,0.19063,9677.13
42.3,0.19127,9701.56
42.4,0.19193,9715.08
42.5,0.19245,9737.36
42.6,0.19304,9775.03
42.7,0.19365,9809.95
42.8,0.19428,9834.78
42.9,0.19485,9867.74
43,0.19542,9898.38
43.1,0.196,9915.31
43.2,0.19661,9947.87
43.3,0.19719,9982.21
43.4,0.19782,10011
43.5,0.19844,10047.1
43.6,0.19905,10086.7
43.7,0.19961,10106.1
43.8,0.20023,10118.125
43.9,0.20077,10135.6
44,0.20138,10181.4
44.1,0.20208,10215
44.2,0.20275,10251.2
44.3,0.20337,10288.5
44.4,0.20406,10317.3
44.5,0.20458,10336.1
44.6,0.20518,10357.3
44.7,0.20582,10388.6
44.8,0.20644,10416
44.9,0.20703,10442.5
45,0.20767,10488.8
45.1,0.20824,10520.9
45.2,0.20887,10538.7
45.3,0.20945,10562.8
45.4,0.21008,10597.9
45.5,0.21068,10631.5
45.6,0.21132,10662.6
45.7,0.21195,10688.2
45.8,0.21251,10713.1
45.9,0.21314,10730.6
46,0.21375,10757.1
46.1,0.21436,10804.8
46.2,0.21496,10832.4
46.3,0.21559,10870.1
46.4,0.21626,10911.1
46.5,0.21696,10937.2
46.6,0.21753,10949.6
46.7,0.21812,10961.8
46.8,0.21874,10988.3
46.9,0.21933,11021.5
47,0.21999,11060.2
47.1,0.2206,11110.8
47.2,0.22119,11133.4
47.3,0.22184,11157.9
47.4,0.22241,11185
47.5,0.22309,11218.8
47.6,0.22371,11244.6
47.7,0.22431,11267.8
47.8,0.22491,11298.3
47.9,0.22558,11333.8
48,0.22623,11358.1
48.1,0.22688,11382.6
48.2,0.22747,11417.4
48.3,0.22815,11455.1
48.4,0.22876,11493.8
48.5,0.22937,11523.4
48.6,0.23004,11543.1
48.7,0.23073,11555.8
48.8,0.23146,11577.2
48.9,0.23206,11620.2
49,0.23276,11654.6
49.1,0.23347,11691.1
49.2,0.23407,11736
49.3,0.23472,11766.3
49.4,0.23539,11787.4
49.5,0.236,11800.7
49.6,0.23664,11826.5
49.7,0.23721,11853.7
49.8,0.23785,11887.9
49.9,0.2385,11932.3
50,0.2391,11957.7
50.1,0.23972,11975.9
50.2,0.24033,12012.6
50.3,0.2409,12048.7
50.4,0.24161,12081.8
50.5,0.24226,12104.8
50.6,0.24293,12134
50.7,0.24359,12160.8
50.8,0.24429,12183.7
50.9,0.24498,12212.4
51,0.24564,12241.7
51.1,0.24627,12276.1
51.2,0.24698,12323.6
51.3,0.24757,12358.7
51.4,0.24821,12381.4
51.5,0.24889,12390.3
51.6,0.2496,12407.8
51.7,0.25023,12441.5
51.8,0.25091,12481.3
51.9,0.25159,12509.8
52,0.25229,12551.5
52.1,0.25289,12583.7
52.2,0.25356,12611
52.3,0.25424,12634.2
52.4,0.25487,12660.8
52.5,0.25549,12686.9
52.6,0.25609,12717.9
52.7,0.25676,12758.2
52.8,0.25745,12789.9
52.9,0.25809,12800
53,0.25879,12833.3
53.1,0.25946,12876.9
53.2,0.26004,12912.5
53.3,0.26071,12937.2
53.4,0.26139,12966.4
53.5,0.26205,12996
53.6,0.26281,13014.1
53.7,0.2634,13045
53.8,0.26405,13076.4
53.9,0.26475,13106.6
54,0.26539,13143.2
54.1,0.26601,13181.8
54.2,0.26665,13204.6
54.3,0.26732,13223
54.4,0.26798,13239.5
54.5,0.2687,13280.6
54.6,0.26944,13317.2
54.7,0.27021,13351.3
54.8,0.27087,13379.8
54.9,0.27156,13410.3
55,0.27234,13435
55.1,0.27309,13460
55.2,0.27378,13487.5
55.3,0.27446,13519.4
55.4,0.27521,13544.4
55.5,0.27591,13588.2
55.6,0.27657,13619.6
55.7,0.27725,13635.2
55.8,0.27791,13650.9
55.9,0.27863,13688.7
56,0.27926,13717.5
56.1,0.27989,13753.6
56.2,0.28061,13779.4
56.3,0.28132,13804.3
56.4,0.28197,13828.5
56.5,0.28264,13847.1
56.6,0.28333,13882.6
56.7,0.28398,13919.1
56.8,0.28475,13942.9
56.9,0.28541,13979
57,0.28609,14019.9
57.1,0.2868,14041.3
57.2,0.28752,14050.1
57.3,0.28824,14067.4
57.4,0.28904,14112.7
57.5,0.28984,14144.8
57.6,0.29061,14181.2
57.7,0.29126,14218.1
57.8,0.29197,14238.6
57.9,0.29276,14258.9
58,0.29346,14280.2
58.1,0.2943,14306.5
58.2,0.29536,14324.2
58.3,0.29624,14347.3
58.4,0.2971,14365.7
58.5,0.29838,14382.1
58.6,0.29919,14419.4
58.7,0.29998,14449
58.8,0.30074,14468.8
58.9,0.30149,14488.9
59,0.30225,14532.8
59.1,0.30309,14564.6
59.2,0.30394,14591.5
59.3,0.30472,14619
59.4,0.30552,14638.6
59.5,0.30639,14651.4
59.6,0.3072,14668
59.7,0.30799,14699.7
59.8,0.309,14742.5
59.9,0.31029,14755.4
60,0.31105,14772.9
60.1,0.31186,14804.2
60.2,0.31264,14843.4
60.3,0.31352,14869.2
60.4,0.31431,14880.1
60.5,0.31518,14894.1
60.6,0.31627,14908.6
60.7,0.31766,14926.8
60.8,0.32056,14890.6
60.9,0.32239,14892.1
61,0.32417,14897
61.1,0.32633,14892.5
61.2,0.32768,14908.3
61.3,0.32892,14929
61.4,0.33004,14956.5
61.5,0.33104,14984.7
61.6,0.33219,15017.6
61.7,0.33326,15052.9
61.8,0.33432,15065.8
61.9,0.33543,15077.5
62,0.33855,15046.9
62.034,0.34345,14917.6
62.066,0.34861,14792
62.086,0.35303,14663
62.186,0.35702,14611
62.286,0.3585,14627.3
62.386,0.35977,14644.5
62.486,0.36119,14650
62.586,0.36258,14661.5
62.686,0.36395,14683.6
62.786,0.36509,14728.6
62.886,0.3663,14758.3
62.986,0.36756,14777.5
63.086,0.36878,14816.6
63.186,0.37005,14844.5
63.286,0.37127,14865.2
63.386,0.37263,14876.6
63.486,0.37385,14887.2
63.586,0.37504,14905.8
63.686,0.37638,14933
63.786,0.37783,14956.8
63.886,0.37899,14981.8
63.986,0.38009,15008.1
64.086,0.38112,15051
64.186,0.38227,15065.1
64.286,0.38341,15080.5
64.386,0.38455,15107.25
64.486,0.38589,15124.6
64.586,0.38714,15154.1
64.686,0.38839,15170.5
64.786,0.38954,15183.6
64.886,0.39073,15199.6
64.986,0.39193,15226.3
65.086,0.39331,15246.9
65.186,0.39448,15262.3
65.286,0.39569,15274.1
65.308,0.40111,15132.4
65.316,0.40636,14987.2
65.324,0.41121,14851.8
65.334,0.41595,14723.4
65.36,0.421,14597.9
65.46,0.4223,14626.4
65.56,0.4238,14635.5
65.66,0.42546,14643.5
65.76,0.42719,14649.1
65.86,0.42876,14657.7
65.96,0.43005,14678.4
66.06,0.43164,14703
66.16,0.43306,14745.3
66.26,0.43463,14765.5
66.36,0.43625,14771.9
66.46,0.4376,14793.4
66.56,0.43907,14830.7
66.66,0.44051,14850.7
66.76,0.44189,14866
66.86,0.44341,14875.2
66.96,0.44552,14875.2
67.06,0.44831,14865.9
67.16,0.45085,14853.1
67.26,0.45663,14723.8
67.29,0.46186,14598.7
67.31,0.467,14460.6
67.338,0.47195,14334.9
67.438,0.47563,14298.3
67.538,0.47815,14291.9
67.638,0.48088,14275.5
67.738,0.4872,14168.7
67.756,0.49234,14035.8
67.766,0.49751,13904
67.776,0.50284,13771.6
67.786,0.50784,13644.9
67.798,0.51355,13499.5
67.812,0.51896,13361.2
67.838,0.52409,13234.7
67.938,0.52882,13200.1
68.038,0.53216,13173.4
68.138,0.53459,13164.5
68.238,0.53766,13134.7
68.338,0.54043,13110.2
68.438,0.54283,13104.1
68.538,0.54499,13102.7
68.638,0.54706,13104.1
68.738,0.54943,13087.7
68.838,0.55177,13084.1
68.938,0.55412,13080.8
69.038,0.55625,13080.4
69.138,0.55849,13077.1
69.238,0.5608,13065.5
69.338,0.56294,13071
69.438,0.56503,13069.5
69.538,0.56851,13027.8
69.628,0.5755,12900.3
69.65,0.58071,12773.4
69.676,0.58651,12628.8
69.684,0.59145,12494.2
69.692,0.59767,12327.5
69.698,0.60243,12200
69.706,0.6084,12045.7
69.716,0.61459,11894.5
69.728,0.62023,11764.4
69.744,0.62576,11636.7
69.762,0.63177,11503.4
69.782,0.63772,11375.8
69.824,0.64423,11250.4
69.89,0.6516,11114.1
69.902,0.65782,10962.4
69.912,0.66419,10811.6
69.922,0.67064,10661.2
69.932,0.67637,10530.7
69.944,0.68289,10385.2
69.956,0.68902,10250.2
69.97,0.69514,10123.3
69.992,0.70159,9994.18
70.03,0.70823,9865.27
70.094,0.71503,9740.07
70.194,0.72164,9664.93
70.294,0.72745,9565.45
70.394,0.73313,9494.57
70.494,0.739,9404.85
70.594,0.74464,9320.1
70.694,0.74922,9286.94
70.794,0.75427,9221.26
70.894,0.76026,9127.74
70.916,0.76677,8987.83
70.928,0.77371,8836.56
70.938,0.78072,8689.76
70.948,0.78748,8556.59
70.96,0.79419,8427.18
70.98,0.80132,8293.75
71.024,0.80955,8167.89
71.116,0.81874,8042.49
71.216,0.82533,7952.66
71.316,0.83094,7876.58
71.402,0.8395,7751.39
71.454,0.84667,7625.53
71.526,0.85581,7494.96
71.574,0.86306,7367.19
71.674,0.87219,7250.89
71.774,0.87757,7201.67
71.874,0.88214,7149.34
71.974,0.88615,7107.62
72.074,0.88936,7084.46
72.174,0.8925,7060.66
72.274,0.89593,7037.24
72.374,0.90179,6999.39
72.474,0.90718,6918.65
72.534,0.91475,6789.22
72.546,0.9235,6630.23
72.554,0.93253,6469.44
72.56,0.93999,6338.6
72.566,0.94859,6186.12
72.572,0.95874,6005.91
72.576,0.96607,5877.17
72.58,0.97413,5738.3
72.584,0.98314,5585.47
72.588,0.99281,5424.12
72.592,1.00281,5260.88
72.596,1.01278,5100.25
72.6,1.02238,4946.75